Freq(Hz),S21 Phase(deg)
1000000000,-31.301643
1001000000,-31.332808
1002000000,-31.212919
1003000000,-31.278296
1004000000,-31.497305
1005000000,-31.351234
1006000000,-31.625061
1007000000,-31.437616
1008000000,-31.483425
1009000000,-31.491283
1010000000,-31.606161
1011000000,-31.601315
1012000000,-31.609657
1013000000,-31.722557
1014000000,-31.637875
1015000000,-31.785969
1016000000,-31.790335
1017000000,-31.887991
1018000000,-31.892616
1019000000,-31.862726
1020000000,-31.929167
1021000000,-31.970865
1022000000,-32.005459
1023000000,-32.017334
1024000000,-32.05756
1025000000,-32.026237
1026000000,-31.896591
1027000000,-32.17934
1028000000,-32.032253
1029000000,-32.077461
1030000000,-32.121853
1031000000,-32.112034
1032000000,-32.333706
1033000000,-32.282272
1034000000,-32.266598
1035000000,-32.358715
1036000000,-32.305744
1037000000,-32.386684
1038000000,-32.288342
1039000000,-32.364174
1040000000,-32.417946
1041000000,-32.551357
1042000000,-32.587124
1043000000,-32.71983
1044000000,-32.647373
1045000000,-32.607021
1046000000,-32.502357
1047000000,-32.809956
1048000000,-32.78318
1049000000,-32.792652
1050000000,-32.724026
1051000000,-32.846191
1052000000,-32.855019
1053000000,-32.771202
1054000000,-33.002369
1055000000,-32.908482
1056000000,-32.895641
1057000000,-33.096775
1058000000,-33.084145
1059000000,-32.988037
1060000000,-32.966015
1061000000,-32.94775
1062000000,-33.174461
1063000000,-33.259075
1064000000,-33.364178
1065000000,-33.36842
1066000000,-33.260372
1067000000,-33.292301
1068000000,-33.434952
1069000000,-33.183506
1070000000,-33.225204
1071000000,-33.397614
1072000000,-33.558239
1073000000,-33.573196
1074000000,-33.513973
1075000000,-33.452835
1076000000,-33.431618
1077000000,-33.313641
1078000000,-33.62957
1079000000,-33.741695
1080000000,-33.751526
1081000000,-33.655231
1082000000,-33.815453
1083000000,-33.501797
1084000000,-33.796829
1085000000,-34.035736
1086000000,-33.901787
1087000000,-33.863342
1088000000,-34.00354
1089000000,-33.888512
1090000000,-33.990761
1091000000,-33.988323
1092000000,-34.055477
1093000000,-33.905312
1094000000,-34.14278
1095000000,-33.838959
1096000000,-33.987309
1097000000,-34.16333
1098000000,-34.045681
1099000000,-34.339603
1100000000,-34.388187
1101000000,-34.398598
1102000000,-34.305481
1103000000,-34.267204
1104000000,-34.584389
1105000000,-34.386246
1106000000,-34.452251
1107000000,-34.513607
1108000000,-34.766014
1109000000,-34.548519
1110000000,-34.608723
1111000000,-34.659355
1112000000,-34.604443
1113000000,-34.524601
1114000000,-34.568508
1115000000,-34.789097
1116000000,-34.603622
1117000000,-34.652802
1118000000,-34.788761
1119000000,-34.858707
1120000000,-34.935802
1121000000,-34.912376
1122000000,-34.991753
1123000000,-34.862331
1124000000,-35.04842
1125000000,-35.110134
1126000000,-35.072102
1127000000,-35.044392
1128000000,-34.989548
1129000000,-35.178074
1130000000,-35.310879
1131000000,-35.206612
1132000000,-35.066113
1133000000,-35.537907
1134000000,-35.371574
1135000000,-35.400116
1136000000,-35.523869
1137000000,-35.473915
1138000000,-35.683048
1139000000,-35.448681
1140000000,-35.478382
1141000000,-35.344879
1142000000,-35.669937
1143000000,-35.501003
1144000000,-35.445305
1145000000,-35.59774
1146000000,-35.69416
1147000000,-35.627846
1148000000,-35.77832
1149000000,-35.683266
1150000000,-35.904217
1151000000,-35.943058
1152000000,-35.857834
1153000000,-35.856316
1154000000,-35.916332
1155000000,-35.757931
1156000000,-35.681042
1157000000,-36.201485
1158000000,-35.941067
1159000000,-36.166855
1160000000,-36.130894
1161000000,-36.131401
1162000000,-36.165234
1163000000,-36.21909
1164000000,-36.289074
1165000000,-36.15958
1166000000,-36.408997
1167000000,-36.32576
1168000000,-36.337166
1169000000,-36.374413
1170000000,-36.400082
1171000000,-36.430275
1172000000,-36.351654
1173000000,-36.503036
1174000000,-36.439014
1175000000,-36.593769
1176000000,-36.514725
1177000000,-36.545891
1178000000,-36.636009
1179000000,-36.818405
1180000000,-36.730625
1181000000,-36.574585
1182000000,-36.843468
1183000000,-36.687141
1184000000,-37.010612
1185000000,-36.764893
1186000000,-36.739243
1187000000,-36.909748
1188000000,-36.834187
1189000000,-36.954235
1190000000,-36.91893
1191000000,-36.924366
1192000000,-37.041061
1193000000,-37.119267
1194000000,-37.195778
1195000000,-37.13813
1196000000,-37.140228
1197000000,-37.110416
1198000000,-37.397354
1199000000,-37.16254
1200000000,-37.35384
1201000000,-37.210018
1202000000,-37.301506
1203000000,-37.510147
1204000000,-37.385002
1205000000,-37.571209
1206000000,-37.484882
1207000000,-37.454399
1208000000,-37.674385
1209000000,-37.691116
1210000000,-37.481663
1211000000,-37.54269
1212000000,-37.513142
1213000000,-37.820259
1214000000,-37.629631
1215000000,-37.91267
1216000000,-37.751442
1217000000,-37.856354
1218000000,-37.90678
1219000000,-38.040001
1220000000,-37.98772
1221000000,-37.985542
1222000000,-37.980198
1223000000,-37.945972
1224000000,-37.841175
1225000000,-37.826233
1226000000,-38.040478
1227000000,-38.156193
1228000000,-38.356297
1229000000,-38.179031
1230000000,-38.130165
1231000000,-38.116047
1232000000,-38.283207
1233000000,-38.317444
1234000000,-38.514175
1235000000,-38.478355
1236000000,-38.315536
1237000000,-38.333977
1238000000,-38.31311
1239000000,-38.307766
1240000000,-38.521984
1241000000,-38.538887
1242000000,-38.493221
1243000000,-38.657703
1244000000,-38.497246
1245000000,-38.812248
1246000000,-38.598629
1247000000,-38.711872
1248000000,-38.742455
1249000000,-38.781094
1250000000,-38.839821
1251000000,-38.837616
1252000000,-38.848579
1253000000,-38.937485
1254000000,-38.953568
1255000000,-38.803444
1256000000,-38.89349
1257000000,-39.095276
1258000000,-38.964272
1259000000,-39.007259
1260000000,-39.221989
1261000000,-38.998722
1262000000,-39.219242
1263000000,-39.123146
1264000000,-39.142204
1265000000,-39.087761
1266000000,-39.399704
1267000000,-39.276585
1268000000,-39.262749
1269000000,-39.467575
1270000000,-39.281544
1271000000,-39.480961
1272000000,-39.385384
1273000000,-39.598083
1274000000,-39.376816
1275000000,-39.570358
1276000000,-39.590668
1277000000,-39.56461
1278000000,-39.684544
1279000000,-39.715996
1280000000,-39.579376
1281000000,-39.679489
1282000000,-39.865536
1283000000,-39.694843
1284000000,-39.492142
1285000000,-40.027378
1286000000,-39.960724
1287000000,-39.841125
1288000000,-39.952209
1289000000,-40.011253
1290000000,-39.902271
1291000000,-40.039913
1292000000,-40.033943
1293000000,-40.132992
1294000000,-39.993992
1295000000,-40.262268
1296000000,-40.192944
1297000000,-40.285515
1298000000,-40.227642
1299000000,-40.291241
1300000000,-40.383152
1301000000,-40.501171
1302000000,-40.267551
1303000000,-40.248955
1304000000,-40.348621
1305000000,-40.36129
1306000000,-40.570831
1307000000,-40.454746
1308000000,-40.47966
1309000000,-40.544617
1310000000,-40.602093
1311000000,-40.839855
1312000000,-40.860893
1313000000,-40.604893
1314000000,-40.725189
1315000000,-40.600483
1316000000,-40.85696
1317000000,-40.966087
1318000000,-40.790028
1319000000,-40.924511
1320000000,-40.917053
1321000000,-40.929813
1322000000,-40.794617
1323000000,-40.987144
1324000000,-41.097301
1325000000,-41.121407
1326000000,-41.043064
1327000000,-41.125
1328000000,-41.168243
1329000000,-41.233597
1330000000,-41.213821
1331000000,-41.194351
1332000000,-41.249809
1333000000,-41.335052
1334000000,-41.363182
1335000000,-41.435959
1336000000,-41.597252
1337000000,-41.316753
1338000000,-41.528969
1339000000,-41.636787
1340000000,-41.539169
1341000000,-41.608166
1342000000,-41.581009
1343000000,-41.546139
1344000000,-41.736179
1345000000,-41.689384
1346000000,-41.618225
1347000000,-41.610371
1348000000,-41.814629
1349000000,-41.95665
1350000000,-41.940033
1351000000,-41.920265
1352000000,-41.780048
1353000000,-41.725845
1354000000,-41.925797
1355000000,-41.963993
1356000000,-42.121777
1357000000,-41.96241
1358000000,-42.050575
1359000000,-42.051445
1360000000,-42.024712
1361000000,-42.195179
1362000000,-42.212471
1363000000,-42.28347
1364000000,-42.002316
1365000000,-42.137417
1366000000,-42.372711
1367000000,-42.417202
1368000000,-42.230885
1369000000,-42.493484
1370000000,-42.274143
1371000000,-42.553432
1372000000,-42.461609
1373000000,-42.550808
1374000000,-42.612846
1375000000,-42.669289
1376000000,-42.693218
1377000000,-42.449875
1378000000,-42.635197
1379000000,-42.631077
1380000000,-42.704948
1381000000,-42.866318
1382000000,-42.603565
1383000000,-42.917164
1384000000,-42.792595
1385000000,-43.043259
1386000000,-42.818043
1387000000,-42.893177
1388000000,-42.897869
1389000000,-42.877827
1390000000,-43.002953
1391000000,-43.086529
1392000000,-43.117863
1393000000,-42.923965
1394000000,-43.19838
1395000000,-43.147327
1396000000,-43.129177
1397000000,-43.236843
1398000000,-43.151691
1399000000,-43.133327
1400000000,-43.242901
1401000000,-43.180878
1402000000,-43.317646
1403000000,-43.339188
1404000000,-43.470478
1405000000,-43.396011
1406000000,-43.354046
1407000000,-43.444885
1408000000,-43.47298
1409000000,-43.486252
1410000000,-43.480122
1411000000,-43.718567
1412000000,-43.41021
1413000000,-43.882851
1414000000,-43.769196
1415000000,-43.794685
1416000000,-43.70578
1417000000,-43.781384
1418000000,-43.796879
1419000000,-43.69474
1420000000,-43.952541
1421000000,-44.102097
1422000000,-43.970963
1423000000,-43.847549
1424000000,-44.024944
1425000000,-43.994205
1426000000,-44.271122
1427000000,-44.122707
1428000000,-44.205246
1429000000,-44.186073
1430000000,-43.982502
1431000000,-44.254963
1432000000,-44.215027
1433000000,-44.28157
1434000000,-44.225662
1435000000,-44.229401
1436000000,-44.34856
1437000000,-44.513794
1438000000,-44.463959
1439000000,-44.364559
1440000000,-44.375183
1441000000,-44.55682
1442000000,-44.582817
1443000000,-44.536335
1444000000,-44.726948
1445000000,-44.496101
1446000000,-44.600929
1447000000,-44.608135
1448000000,-44.522457
1449000000,-44.625717
1450000000,-44.772442
1451000000,-44.787701
1452000000,-44.638165
1453000000,-44.743015
1454000000,-44.868019
1455000000,-44.778812
1456000000,-44.980865
1457000000,-44.836987
1458000000,-44.898987
1459000000,-45.141865
1460000000,-44.925808
1461000000,-45.091984
1462000000,-44.973633
1463000000,-45.068275
1464000000,-45.000389
1465000000,-45.133667
1466000000,-45.32848
1467000000,-45.348263
1468000000,-45.407429
1469000000,-45.22213
1470000000,-45.274307
1471000000,-45.326633
1472000000,-45.413624
1473000000,-45.539463
1474000000,-45.491997
1475000000,-45.600388
1476000000,-45.40485
1477000000,-45.647499
1478000000,-45.537189
1479000000,-45.502785
1480000000,-45.626587
1481000000,-45.604008
1482000000,-45.761837
1483000000,-45.7024
1484000000,-45.572128
1485000000,-45.703457
1486000000,-45.775814
1487000000,-45.933491
1488000000,-45.893852
1489000000,-45.916439
1490000000,-46.098099
1491000000,-46.218811
1492000000,-46.088715
1493000000,-46.003563
1494000000,-46.173214
1495000000,-46.154964
1496000000,-45.954803
1497000000,-46.16626
1498000000,-46.148457
1499000000,-46.264561
1500000000,-46.436363
1501000000,-46.428738
1502000000,-46.429619
1503000000,-46.202934
1504000000,-46.480587
1505000000,-46.457737
1506000000,-46.451351
1507000000,-46.511028
1508000000,-46.439037
1509000000,-46.424961
1510000000,-46.51561
1511000000,-46.65102
1512000000,-46.663528
1513000000,-46.527912
1514000000,-46.617451
1515000000,-46.767193
1516000000,-46.946373
1517000000,-46.802094
1518000000,-46.790333
1519000000,-46.878296
1520000000,-46.864632
1521000000,-47.02837
1522000000,-46.883064
1523000000,-47.09864
1524000000,-46.851269
1525000000,-46.910763
1526000000,-46.91951
1527000000,-46.938927
1528000000,-47.158825
1529000000,-47.256481
1530000000,-47.040688
1531000000,-47.219501
1532000000,-46.959354
1533000000,-47.11692
1534000000,-47.114273
1535000000,-47.237583
1536000000,-47.313107
1537000000,-47.437508
1538000000,-47.21653
1539000000,-47.619564
1540000000,-47.413406
1541000000,-47.646599
1542000000,-47.478966
1543000000,-47.403053
1544000000,-47.670818
1545000000,-47.539307
1546000000,-47.459629
1547000000,-47.608059
1548000000,-47.601929
1549000000,-47.660118
1550000000,-47.765137
1551000000,-47.758156
1552000000,-47.754028
1553000000,-47.802639
1554000000,-47.760254
1555000000,-47.91555
1556000000,-47.969757
1557000000,-47.916927
1558000000,-47.838093
1559000000,-47.962059
1560000000,-48.122169
1561000000,-48.036705
1562000000,-48.02631
1563000000,-48.050266
1564000000,-48.292393
1565000000,-48.147648
1566000000,-48.082275
1567000000,-48.152908
1568000000,-48.143127
1569000000,-48.287712
1570000000,-48.18322
1571000000,-48.407825
1572000000,-48.347321
1573000000,-48.322491
1574000000,-48.392345
1575000000,-48.53455
1576000000,-48.552242
1577000000,-48.595291
1578000000,-48.484814
1579000000,-48.5909
1580000000,-48.560642
1581000000,-48.573563
1582000000,-48.932629
1583000000,-48.647549
1584000000,-48.855808
1585000000,-48.731216
1586000000,-48.900185
1587000000,-48.921215
1588000000,-48.814735
1589000000,-49.145702
1590000000,-48.919472
1591000000,-48.890759
1592000000,-48.824997
1593000000,-49.02586
1594000000,-48.989075
1595000000,-48.933865
1596000000,-49.041725
1597000000,-49.187366
1598000000,-48.992352
1599000000,-49.328594
1600000000,-49.269119
1601000000,-49.214809
1602000000,-49.193253
1603000000,-49.182182
1604000000,-49.256512
1605000000,-49.474693
1606000000,-49.288155
1607000000,-49.316154
1608000000,-49.434784
1609000000,-49.420334
1610000000,-49.461597
1611000000,-49.321346
1612000000,-49.562401
1613000000,-49.699852
1614000000,-49.543373
1615000000,-49.657715
1616000000,-49.628803
1617000000,-49.823097
1618000000,-49.728207
1619000000,-49.768368
1620000000,-49.794918
1621000000,-49.968384
1622000000,-49.914974
1623000000,-50.015812
1624000000,-49.911743
1625000000,-49.989025
1626000000,-49.875389
1627000000,-49.991123
1628000000,-50.172974
1629000000,-50.097095
1630000000,-50.126663
1631000000,-50.130627
1632000000,-50.137421
1633000000,-50.112423
1634000000,-50.295158
1635000000,-50.174923
1636000000,-50.365902
1637000000,-50.337795
1638000000,-50.328831
1639000000,-50.214977
1640000000,-50.301369
1641000000,-50.514919
1642000000,-50.473309
1643000000,-50.61298
1644000000,-50.511639
1645000000,-50.459301
1646000000,-50.59568
1647000000,-50.610935
1648000000,-50.446281
1649000000,-50.539776
1650000000,-50.758553
1651000000,-50.667248
1652000000,-50.637836
1653000000,-50.616745
1654000000,-50.841072
1655000000,-50.849758
1656000000,-50.879436
1657000000,-50.720348
1658000000,-51.004665
1659000000,-50.985008
1660000000,-51.075855
1661000000,-50.957031
1662000000,-50.896477
1663000000,-50.943092
1664000000,-51.107929
1665000000,-51.155415
1666000000,-51.109661
1667000000,-51.135654
1668000000,-51.094841
1669000000,-51.14262
1670000000,-51.338184
1671000000,-51.178432
1672000000,-51.291748
1673000000,-51.306213
1674000000,-51.386169
1675000000,-51.646847
1676000000,-51.320332
1677000000,-51.389458
1678000000,-51.512848
1679000000,-51.517803
1680000000,-51.633034
1681000000,-51.562439
1682000000,-51.583462
1683000000,-51.627087
1684000000,-51.786613
1685000000,-51.750961
1686000000,-51.751419
1687000000,-51.691433
1688000000,-51.852695
1689000000,-51.810776
1690000000,-51.792995
1691000000,-51.784531
1692000000,-51.956177
1693000000,-51.84832
1694000000,-52.045727
1695000000,-52.220036
1696000000,-52.057369
1697000000,-51.990261
1698000000,-52.041908
1699000000,-52.139153
1700000000,-52.195526
1701000000,-52.236935
1702000000,-52.375191
1703000000,-52.242599
1704000000,-52.402309
1705000000,-52.380096
1706000000,-52.334198
1707000000,-52.283348
1708000000,-52.433609
1709000000,-52.430305
1710000000,-52.4268
1711000000,-52.567184
1712000000,-52.353065
1713000000,-52.48642
1714000000,-52.816235
1715000000,-52.606358
1716000000,-52.519569
1717000000,-52.643311
1718000000,-52.629425
1719000000,-52.682056
1720000000,-52.638435
1721000000,-52.744514
1722000000,-52.687843
1723000000,-52.795715
1724000000,-52.770977
1725000000,-52.757641
1726000000,-53.004379
1727000000,-52.898079
1728000000,-52.923634
1729000000,-53.194672
1730000000,-52.998299
1731000000,-52.996357
1732000000,-53.020061
1733000000,-53.178749
1734000000,-53.124062
1735000000,-53.319881
1736000000,-53.182167
1737000000,-53.228821
1738000000,-53.265232
1739000000,-53.436779
1740000000,-53.25782
1741000000,-53.290787
1742000000,-53.41967
1743000000,-53.42836
1744000000,-53.444309
1745000000,-53.496895
1746000000,-53.613937
1747000000,-53.600853
1748000000,-53.68911
1749000000,-53.722164
1750000000,-53.624275
1751000000,-53.780815
1752000000,-53.981293
1753000000,-53.731056
1754000000,-53.694183
1755000000,-53.885902
1756000000,-53.797775
1757000000,-53.79266
1758000000,-53.954006
1759000000,-53.999447
1760000000,-53.960365
1761000000,-54.020657
1762000000,-54.063423
1763000000,-54.262707
1764000000,-54.011581
1765000000,-54.377609
1766000000,-54.059395
1767000000,-54.079132
1768000000,-54.326298
1769000000,-54.247688
1770000000,-54.289898
1771000000,-54.367458
1772000000,-54.402622
1773000000,-54.21645
1774000000,-54.457878
1775000000,-54.311279
1776000000,-54.407814
1777000000,-54.370167
1778000000,-54.528099
1779000000,-54.452309
1780000000,-54.466492
1781000000,-54.659843
1782000000,-54.505592
1783000000,-54.669647
1784000000,-54.59938
1785000000,-54.892704
1786000000,-54.826813
1787000000,-54.680946
1788000000,-54.910931
1789000000,-54.879131
1790000000,-54.732483
1791000000,-54.799969
1792000000,-54.866177
1793000000,-55.090202
1794000000,-54.885357
1795000000,-55.136475
1796000000,-55.097038
1797000000,-55.104801
1798000000,-55.236732
1799000000,-55.152939
1800000000,-55.200272
1801000000,-55.270855
1802000000,-55.283009
1803000000,-55.152195
1804000000,-55.325958
1805000000,-55.319412
1806000000,-55.316589
1807000000,-55.508827
1808000000,-55.33889
1809000000,-55.464287
1810000000,-55.466263
1811000000,-55.697758
1812000000,-55.422352
1813000000,-55.640659
1814000000,-55.61657
1815000000,-55.696846
1816000000,-55.807278
1817000000,-55.855778
1818000000,-55.603985
1819000000,-55.760113
1820000000,-55.785057
1821000000,-55.770733
1822000000,-55.813412
1823000000,-55.894417
1824000000,-55.99725
1825000000,-55.795586
1826000000,-56.063416
1827000000,-55.814102
1828000000,-56.064735
1829000000,-56.062908
1830000000,-56.253231
1831000000,-56.039276
1832000000,-56.265141
1833000000,-56.447617
1834000000,-56.176918
1835000000,-56.3615
1836000000,-56.2346
1837000000,-56.291527
1838000000,-56.441895
1839000000,-56.322582
1840000000,-56.123161
1841000000,-56.397373
1842000000,-56.595451
1843000000,-56.615879
1844000000,-56.549553
1845000000,-56.361214
1846000000,-56.658691
1847000000,-56.668514
1848000000,-56.529705
1849000000,-56.636208
1850000000,-56.719429
1851000000,-56.788853
1852000000,-56.677776
1853000000,-56.816429
1854000000,-56.747616
1855000000,-56.895897
1856000000,-57.066498
1857000000,-56.865654
1858000000,-56.940945
1859000000,-56.974937
1860000000,-56.881702
1861000000,-56.988594
1862000000,-57.147972
1863000000,-57.060822
1864000000,-57.272976
1865000000,-57.02512
1866000000,-57.380169
1867000000,-57.442875
1868000000,-57.174908
1869000000,-57.463768
1870000000,-57.480358
1871000000,-57.288933
1872000000,-57.558674
1873000000,-57.447144
1874000000,-57.634148
1875000000,-57.377975
1876000000,-57.547569
1877000000,-57.58474
1878000000,-57.599136
1879000000,-57.700981
1880000000,-57.603268
1881000000,-57.699772
1882000000,-57.745903
1883000000,-57.857113
1884000000,-57.864277
1885000000,-57.739727
1886000000,-57.692539
1887000000,-57.70422
1888000000,-57.801739
1889000000,-57.818836
1890000000,-57.953247
1891000000,-57.977501
1892000000,-58.064007
1893000000,-58.006905
1894000000,-58.087639
1895000000,-58.007095
1896000000,-58.039028
1897000000,-58.232903
1898000000,-58.344028
1899000000,-58.234337
1900000000,-58.279171
1901000000,-58.137184
1902000000,-58.141937
1903000000,-58.402264
1904000000,-58.156078
1905000000,-58.436714
1906000000,-58.266151
1907000000,-58.393002
1908000000,-58.690109
1909000000,-58.432152
1910000000,-58.582958
1911000000,-58.599846
1912000000,-58.708591
1913000000,-58.523827
1914000000,-58.768391
1915000000,-58.666714
1916000000,-58.717537
1917000000,-58.812103
1918000000,-58.897507
1919000000,-58.708637
1920000000,-58.821404
1921000000,-58.831287
1922000000,-58.853821
1923000000,-58.820538
1924000000,-59.151844
1925000000,-59.144993
1926000000,-59.135143
1927000000,-59.24147
1928000000,-59.19294
1929000000,-59.0868
1930000000,-59.342773
1931000000,-59.217381
1932000000,-59.327297
1933000000,-59.251633
1934000000,-59.406212
1935000000,-59.371815
1936000000,-59.39822
1937000000,-59.396759
1938000000,-59.230129
1939000000,-59.516075
1940000000,-59.222378
1941000000,-59.30801
1942000000,-59.4547
1943000000,-59.461899
1944000000,-59.43169
1945000000,-59.482944
1946000000,-59.664757
1947000000,-59.829365
1948000000,-59.669327
1949000000,-59.792332
1950000000,-59.658398
1951000000,-59.906239
1952000000,-59.832588
1953000000,-59.750401
1954000000,-60.021271
1955000000,-60.134781
1956000000,-59.910172
1957000000,-59.996307
1958000000,-59.807663
1959000000,-60.119164
1960000000,-60.115719
1961000000,-60.333225
1962000000,-59.941597
1963000000,-60.221565
1964000000,-60.289116
1965000000,-59.981266
1966000000,-60.328167
1967000000,-60.224335
1968000000,-60.241444
1969000000,-60.243717
1970000000,-60.304043
1971000000,-60.16547
1972000000,-60.288952
1973000000,-60.50864
1974000000,-60.429962
1975000000,-60.622902
1976000000,-60.386421
1977000000,-60.544792
1978000000,-60.548069
1979000000,-60.684532
1980000000,-60.70726
1981000000,-60.900726
1982000000,-60.665966
1983000000,-61.026375
1984000000,-61.062527
1985000000,-60.760666
1986000000,-61.053333
1987000000,-61.184246
1988000000,-60.837471
1989000000,-60.791531
1990000000,-60.933483
1991000000,-61.055218
1992000000,-61.198128
1993000000,-60.916996
1994000000,-61.308456
1995000000,-61.200359
1996000000,-61.201817
1997000000,-61.001247
1998000000,-61.273315
1999000000,-61.317749
2000000000,-61.3512
2001000000,-61.17931
2002000000,-61.273544
2003000000,-61.3493
2004000000,-61.358952
2005000000,-61.358109
2006000000,-61.426754
2007000000,-61.643887
2008000000,-61.55542
2009000000,-61.677544
2010000000,-61.538387
2011000000,-61.602226
2012000000,-61.806519
2013000000,-61.621338
2014000000,-61.648518
2015000000,-61.735435
2016000000,-61.71875
2017000000,-61.92384
2018000000,-61.79221
2019000000,-61.752945
2020000000,-61.986172
2021000000,-61.822849
2022000000,-62.154156
2023000000,-62.124962
2024000000,-61.966953
2025000000,-62.042385
2026000000,-61.893139
2027000000,-62.084957
2028000000,-61.943272
2029000000,-62.068928
2030000000,-62.282883
2031000000,-62.267059
2032000000,-62.208988
2033000000,-62.400364
2034000000,-62.395103
2035000000,-62.505348
2036000000,-62.479431
2037000000,-62.452923
2038000000,-62.437595
2039000000,-62.557178
2040000000,-62.403728
2041000000,-62.553135
2042000000,-62.462353
2043000000,-62.74955
2044000000,-62.73518
2045000000,-62.549232
2046000000,-62.637199
2047000000,-62.695183
2048000000,-62.758041
2049000000,-62.795197
2050000000,-62.693138
2051000000,-62.962318
2052000000,-62.903618
2053000000,-62.766224
2054000000,-62.98373
2055000000,-63.071354
2056000000,-62.906479
2057000000,-62.990391
2058000000,-63.155079
2059000000,-63.073322
2060000000,-63.202808
2061000000,-63.121025
2062000000,-63.171066
2063000000,-63.24424
2064000000,-63.36237
2065000000,-63.325867
2066000000,-63.526581
2067000000,-63.121643
2068000000,-63.429474
2069000000,-63.235531
2070000000,-63.360325
2071000000,-63.497341
2072000000,-63.656139
2073000000,-63.411674
2074000000,-63.557793
2075000000,-63.424046
2076000000,-63.706085
2077000000,-63.440289
2078000000,-63.708359
2079000000,-63.719601
2080000000,-63.595661
2081000000,-63.911999
2082000000,-63.665028
2083000000,-63.972523
2084000000,-63.884968
2085000000,-63.722679
2086000000,-63.946491
2087000000,-63.944019
2088000000,-63.884605
2089000000,-63.794434
2090000000,-64.058136
2091000000,-63.881142
2092000000,-63.967747
2093000000,-64.134377
2094000000,-64.05851
2095000000,-64.119263
2096000000,-64.333611
2097000000,-64.374519
2098000000,-64.253883
2099000000,-64.233116
2100000000,-64.354767
2101000000,-64.388817
2102000000,-64.574142
2103000000,-64.546051
2104000000,-64.309052
2105000000,-64.432762
2106000000,-64.380348
2107000000,-64.527855
2108000000,-64.727432
2109000000,-64.438011
2110000000,-64.554436
2111000000,-64.598511
2112000000,-64.563156
2113000000,-64.64798
2114000000,-64.602943
2115000000,-64.762283
2116000000,-64.63855
2117000000,-64.687592
2118000000,-64.706947
2119000000,-64.959106
2120000000,-64.988235
2121000000,-64.961578
2122000000,-64.954094
2123000000,-64.909683
2124000000,-64.906128
2125000000,-65.088921
2126000000,-65.109108
2127000000,-65.141068
2128000000,-65.195396
2129000000,-65.243607
2130000000,-65.26619
2131000000,-65.290581
2132000000,-65.291763
2133000000,-65.429153
2134000000,-65.26371
2135000000,-65.383934
2136000000,-65.281189
2137000000,-65.384254
2138000000,-65.591103
2139000000,-65.423218
2140000000,-65.53524
2141000000,-65.358261
2142000000,-65.89502
2143000000,-65.569626
2144000000,-65.883392
2145000000,-65.632614
2146000000,-65.798698
2147000000,-65.71608
2148000000,-65.790649
2149000000,-65.708282
2150000000,-65.63974
2151000000,-65.771217
2152000000,-65.764557
2153000000,-65.91008
2154000000,-65.853264
2155000000,-65.911423
2156000000,-66.267708
2157000000,-65.985794
2158000000,-65.972168
2159000000,-66.124199
2160000000,-66.065422
2161000000,-66.278915
2162000000,-66.224815
2163000000,-66.194405
2164000000,-66.35817
2165000000,-66.216843
2166000000,-66.364738
2167000000,-66.328056
2168000000,-66.429779
2169000000,-66.439705
2170000000,-66.405853
2171000000,-66.525787
2172000000,-66.468498
2173000000,-66.534836
2174000000,-66.478867
2175000000,-66.60511
2176000000,-66.469917
2177000000,-66.609047
2178000000,-66.612831
2179000000,-66.59301
2180000000,-66.70742
2181000000,-66.568893
2182000000,-66.658478
2183000000,-66.845123
2184000000,-66.697136
2185000000,-66.881874
2186000000,-66.812874
2187000000,-66.825668
2188000000,-66.948952
2189000000,-66.93119
2190000000,-67.2258
2191000000,-67.151131
2192000000,-66.828087
2193000000,-67.142181
2194000000,-67.277428
2195000000,-66.953621
2196000000,-67.490646
2197000000,-67.31591
2198000000,-67.317078
2199000000,-67.329796
2200000000,-67.323395
2201000000,-67.346565
2202000000,-67.341179
2203000000,-67.395988
2204000000,-67.410408
2205000000,-67.358147
2206000000,-67.44722
2207000000,-67.478065
2208000000,-67.528168
2209000000,-67.620903
2210000000,-67.406517
2211000000,-67.630402
2212000000,-67.782433
2213000000,-67.884933
2214000000,-67.824158
2215000000,-67.703514
2216000000,-67.770554
2217000000,-68.01664
2218000000,-68.336792
2219000000,-67.982147
2220000000,-67.874641
2221000000,-67.797974
2222000000,-67.970177
2223000000,-67.874519
2224000000,-67.917091
2225000000,-67.735382
2226000000,-68.17511
2227000000,-68.061928
2228000000,-68.282135
2229000000,-67.96933
2230000000,-68.356125
2231000000,-68.403351
2232000000,-68.291435
2233000000,-68.408577
2234000000,-68.284271
2235000000,-68.457047
2236000000,-68.385826
2237000000,-68.35215
2238000000,-68.449608
2239000000,-68.562843
2240000000,-68.575684
2241000000,-68.534546
2242000000,-68.47123
2243000000,-68.550079
2244000000,-68.524246
2245000000,-68.45813
2246000000,-68.658043
2247000000,-68.756104
2248000000,-68.814636
2249000000,-69.108192
2250000000,-68.695572
2251000000,-69.013611
2252000000,-68.784805
2253000000,-68.823624
2254000000,-68.976891
2255000000,-68.844711
2256000000,-68.944084
2257000000,-69.151192
2258000000,-69.072769
2259000000,-69.135323
2260000000,-69.075859
2261000000,-69.222153
2262000000,-69.099197
2263000000,-69.214203
2264000000,-69.167068
2265000000,-69.373856
2266000000,-69.222443
2267000000,-69.444725
2268000000,-69.334702
2269000000,-69.455826
2270000000,-69.33374
2271000000,-69.471352
2272000000,-69.447327
2273000000,-69.527725
2274000000,-69.669533
2275000000,-69.380516
2276000000,-69.542122
2277000000,-69.387962
2278000000,-69.719894
2279000000,-69.682579
2280000000,-69.740723
2281000000,-69.894341
2282000000,-69.899261
2283000000,-69.795227
2284000000,-69.805611
2285000000,-69.991241
2286000000,-69.798454
2287000000,-70.048676
2288000000,-70.007133
2289000000,-69.774673
2290000000,-70.044594
2291000000,-70.115898
2292000000,-70.013504
2293000000,-70.051872
2294000000,-70.176369
2295000000,-70.091835
2296000000,-70.390862
2297000000,-70.224953
2298000000,-70.239395
2299000000,-70.35199
2300000000,-70.409615
2301000000,-70.268486
2302000000,-70.335861
2303000000,-70.427147
2304000000,-70.266739
2305000000,-70.555084
2306000000,-70.528435
2307000000,-70.541138
2308000000,-70.503128
2309000000,-70.59874
2310000000,-70.523056
2311000000,-70.60511
2312000000,-70.754936
2313000000,-70.538033
2314000000,-70.836418
2315000000,-70.613907
2316000000,-70.805481
2317000000,-70.80172
2318000000,-70.56916
2319000000,-70.873291
2320000000,-70.968422
2321000000,-70.863838
2322000000,-70.906517
2323000000,-71.070053
2324000000,-70.980225
2325000000,-71.018173
2326000000,-71.20504
2327000000,-71.043411
2328000000,-71.174286
2329000000,-70.963455
2330000000,-71.16153
2331000000,-71.150063
2332000000,-71.324409
2333000000,-71.257965
2334000000,-71.23156
2335000000,-71.202301
2336000000,-71.276649
2337000000,-71.367416
2338000000,-71.271751
2339000000,-71.323326
2340000000,-71.366463
2341000000,-71.403366
2342000000,-71.5784
2343000000,-71.430717
2344000000,-71.538689
2345000000,-71.70356
2346000000,-71.585258
2347000000,-71.653954
2348000000,-71.693359
2349000000,-71.770348
2350000000,-71.667549
2351000000,-71.637505
2352000000,-72.024406
2353000000,-71.824898
2354000000,-71.724876
2355000000,-71.943314
2356000000,-71.938087
2357000000,-71.911972
2358000000,-71.91774
2359000000,-72.036446
2360000000,-71.996819
2361000000,-72.307068
2362000000,-72.218315
2363000000,-72.019951
2364000000,-72.194641
2365000000,-72.404251
2366000000,-72.223045
2367000000,-72.425209
2368000000,-72.485878
2369000000,-72.390633
2370000000,-72.407356
2371000000,-72.511841
2372000000,-72.302658
2373000000,-72.483246
2374000000,-72.521332
2375000000,-72.474449
2376000000,-72.728897
2377000000,-72.517586
2378000000,-72.665253
2379000000,-72.474739
2380000000,-72.683502
2381000000,-72.716896
2382000000,-72.768425
2383000000,-72.631805
2384000000,-72.57589
2385000000,-72.782028
2386000000,-72.809212
2387000000,-72.792938
2388000000,-72.985138
2389000000,-73.039978
2390000000,-73.105652
2391000000,-72.907295
2392000000,-72.971169
2393000000,-72.984459
2394000000,-73.070847
2395000000,-73.127647
2396000000,-73.267395
2397000000,-73.180374
2398000000,-73.01255
2399000000,-73.236389
2400000000,-73.305428
2401000000,-73.31485
2402000000,-73.402222
2403000000,-73.363884
2404000000,-73.443901
2405000000,-73.345436
2406000000,-73.76516
2407000000,-73.526718
2408000000,-73.235054
2409000000,-73.435364
2410000000,-73.569839
2411000000,-73.358879
2412000000,-73.539635
2413000000,-73.73217
2414000000,-73.624344
2415000000,-73.620285
2416000000,-73.661385
2417000000,-73.774269
2418000000,-73.762474
2419000000,-73.780251
2420000000,-73.721504
2421000000,-74.095718
2422000000,-73.746689
2423000000,-73.929993
2424000000,-73.96637
2425000000,-74.021233
2426000000,-74.062302
2427000000,-74.098015
2428000000,-74.188255
2429000000,-74.044418
2430000000,-74.228508
2431000000,-74.412422
2432000000,-74.149429
2433000000,-74.184746
2434000000,-74.37365
2435000000,-74.302811
2436000000,-74.250984
2437000000,-74.478706
2438000000,-74.245178
2439000000,-74.454964
2440000000,-74.456146
2441000000,-74.438026
2442000000,-74.746361
2443000000,-74.686142
2444000000,-74.584297
2445000000,-74.63295
2446000000,-74.549629
2447000000,-74.475273
2448000000,-74.604385
2449000000,-74.592056
2450000000,-74.669922
2451000000,-74.780487
2452000000,-74.645752
2453000000,-74.969566
2454000000,-74.740143
2455000000,-74.72876
2456000000,-75.083603
2457000000,-75.061058
2458000000,-74.981255
2459000000,-75.037712
2460000000,-75.067841
2461000000,-75.068825
2462000000,-75.112755
2463000000,-75.160973
2464000000,-75.163322
2465000000,-75.246437
2466000000,-75.316765
2467000000,-75.306679
2468000000,-75.534492
2469000000,-75.263908
2470000000,-75.068848
2471000000,-75.327606
2472000000,-75.196487
2473000000,-75.554047
2474000000,-75.527946
2475000000,-75.313942
2476000000,-75.647301
2477000000,-75.473869
2478000000,-75.629425
2479000000,-75.536064
2480000000,-75.649452
2481000000,-75.622215
2482000000,-75.742722
2483000000,-75.449875
2484000000,-75.767174
2485000000,-75.730515
2486000000,-75.738937
2487000000,-75.881859
2488000000,-75.927689
2489000000,-75.802078
2490000000,-76.187103
2491000000,-75.802849
2492000000,-75.897278
2493000000,-76.111595
2494000000,-76.084526
2495000000,-76.045639
2496000000,-76.117104
2497000000,-76.066208
2498000000,-76.220375
2499000000,-76.239487
2500000000,-76.097923
2501000000,-76.365044
2502000000,-76.458366
2503000000,-76.59671
2504000000,-76.298813
2505000000,-76.488403
2506000000,-76.391777
2507000000,-76.366867
2508000000,-76.592339
2509000000,-76.557755
2510000000,-76.573235
2511000000,-76.594162
2512000000,-76.723381
2513000000,-76.828041
2514000000,-76.607986
2515000000,-76.758324
2516000000,-76.708794
2517000000,-76.779991
2518000000,-76.826508
2519000000,-76.843498
2520000000,-76.916283
2521000000,-76.767082
2522000000,-77.031998
2523000000,-76.914841
2524000000,-77.106796
2525000000,-76.926056
2526000000,-77.286491
2527000000,-77.088791
2528000000,-77.047081
2529000000,-77.339836
2530000000,-77.170555
2531000000,-77.123604
2532000000,-77.226135
2533000000,-77.410378
2534000000,-77.411667
2535000000,-77.417877
2536000000,-77.246643
2537000000,-77.515839
2538000000,-77.376068
2539000000,-77.468315
2540000000,-77.484123
2541000000,-77.379219
2542000000,-77.598465
2543000000,-77.606415
2544000000,-77.485786
2545000000,-77.828918
2546000000,-77.730606
2547000000,-77.580605
2548000000,-77.801506
2549000000,-77.592514
2550000000,-77.928474
2551000000,-77.815063
2552000000,-78.012825
2553000000,-77.728447
2554000000,-77.88562
2555000000,-77.86972
2556000000,-77.835686
2557000000,-78.083771
2558000000,-77.953613
2559000000,-78.080467
2560000000,-78.235275
2561000000,-78.218445
2562000000,-78.193672
2563000000,-78.307648
2564000000,-78.228561
2565000000,-78.268501
2566000000,-78.392212
2567000000,-78.1931
2568000000,-78.550514
2569000000,-78.196259
2570000000,-78.546059
2571000000,-78.496262
2572000000,-78.742851
2573000000,-78.467407
2574000000,-78.615021
2575000000,-78.653168
2576000000,-78.59903
2577000000,-78.463264
2578000000,-78.78405
2579000000,-78.756607
2580000000,-78.858727
2581000000,-78.805115
2582000000,-78.809174
2583000000,-78.797165
2584000000,-78.78344
2585000000,-78.787231
2586000000,-78.810921
2587000000,-79.131653
2588000000,-78.732742
2589000000,-79.052711
2590000000,-78.909142
2591000000,-79.158905
2592000000,-79.033882
2593000000,-79.184006
2594000000,-79.270729
2595000000,-79.244064
2596000000,-79.371056
2597000000,-79.203362
2598000000,-79.27697
2599000000,-79.334183
2600000000,-79.548416
2601000000,-79.417625
2602000000,-79.474472
2603000000,-79.474365
2604000000,-79.522438
2605000000,-79.546143
2606000000,-79.563545
2607000000,-79.540901
2608000000,-79.549118
2609000000,-79.809044
2610000000,-79.617332
2611000000,-79.783371
2612000000,-79.791443
2613000000,-79.65316
2614000000,-79.865486
2615000000,-79.985458
2616000000,-79.918526
2617000000,-79.955109
2618000000,-80.014168
2619000000,-80.049492
2620000000,-79.973732
2621000000,-80.055969
2622000000,-79.940163
2623000000,-80.130127
2624000000,-80.139946
2625000000,-80.133797
2626000000,-80.295151
2627000000,-80.355904
2628000000,-80.285759
2629000000,-80.246414
2630000000,-80.503098
2631000000,-80.422699
2632000000,-80.443787
2633000000,-80.406708
2634000000,-80.655731
2635000000,-80.423119
2636000000,-80.557983
2637000000,-80.836777
2638000000,-80.594452
2639000000,-80.521255
2640000000,-80.910408
2641000000,-80.904442
2642000000,-80.786179
2643000000,-80.872795
2644000000,-80.910873
2645000000,-80.818565
2646000000,-80.942604
2647000000,-80.924965
2648000000,-81.031891
2649000000,-80.90303
2650000000,-80.920128
2651000000,-80.772316
2652000000,-81.308571
2653000000,-81.223289
2654000000,-81.117317
2655000000,-81.176414
2656000000,-81.041931
2657000000,-80.929504
2658000000,-81.291603
2659000000,-81.256882
2660000000,-81.398476
2661000000,-81.333122
2662000000,-81.267426
2663000000,-81.292419
2664000000,-81.304184
2665000000,-81.333206
2666000000,-81.466896
2667000000,-81.652359
2668000000,-81.530136
2669000000,-81.785637
2670000000,-81.688217
2671000000,-81.911682
2672000000,-81.702583
2673000000,-81.665619
2674000000,-81.637596
2675000000,-81.787086
2676000000,-81.748123
2677000000,-81.650871
2678000000,-82.129471
2679000000,-81.842674
2680000000,-82.001732
2681000000,-82.133842
2682000000,-81.967812
2683000000,-81.956352
2684000000,-81.98912
2685000000,-82.25428
2686000000,-82.091698
2687000000,-82.465927
2688000000,-82.162781
2689000000,-82.204292
2690000000,-82.215546
2691000000,-82.169479
2692000000,-82.375587
2693000000,-82.484192
2694000000,-82.407104
2695000000,-82.334229
2696000000,-82.450287
2697000000,-82.532486
2698000000,-82.652039
2699000000,-82.372894
2700000000,-82.730721
2701000000,-82.606003
2702000000,-82.649452
2703000000,-82.868874
2704000000,-82.955589
2705000000,-82.667778
2706000000,-82.689362
2707000000,-82.820786
2708000000,-82.720703
2709000000,-83.094566
2710000000,-82.884659
2711000000,-82.873741
2712000000,-83.065758
2713000000,-82.842979
2714000000,-83.023132
2715000000,-83.083252
2716000000,-82.928711
2717000000,-83.115036
2718000000,-83.092171
2719000000,-83.001686
2720000000,-83.298866
2721000000,-83.108765
2722000000,-83.117188
2723000000,-83.126022
2724000000,-83.160385
2725000000,-83.176102
2726000000,-83.43618
2727000000,-83.386307
2728000000,-83.487091
2729000000,-83.52832
2730000000,-83.296532
2731000000,-83.418915
2732000000,-83.604645
2733000000,-83.694305
2734000000,-83.680244
2735000000,-83.730499
2736000000,-83.811958
2737000000,-83.803627
2738000000,-83.775246
2739000000,-83.706734
2740000000,-83.733955
2741000000,-83.842079
2742000000,-84.009041
2743000000,-83.849159
2744000000,-84.042847
2745000000,-84.016785
2746000000,-83.986794
2747000000,-83.864349
2748000000,-84.093338
2749000000,-84.033188
2750000000,-83.990021
2751000000,-84.23008
2752000000,-84.079758
2753000000,-84.286156
2754000000,-84.322838
2755000000,-84.208473
2756000000,-84.145454
2757000000,-84.38755
2758000000,-84.250702
2759000000,-84.406563
2760000000,-84.432732
2761000000,-84.513893
2762000000,-84.563019
2763000000,-84.613098
2764000000,-84.628479
2765000000,-84.835152
2766000000,-84.575874
2767000000,-84.603958
2768000000,-84.622475
2769000000,-84.649506
2770000000,-84.87439
2771000000,-84.84613
2772000000,-84.755714
2773000000,-84.745384
2774000000,-84.814423
2775000000,-84.980988
2776000000,-84.914536
2777000000,-85.089989
2778000000,-85.085335
2779000000,-84.99482
2780000000,-85.064148
2781000000,-85.128334
2782000000,-85.216087
2783000000,-85.172203
2784000000,-85.221222
2785000000,-85.214523
2786000000,-85.134087
2787000000,-85.370613
2788000000,-85.208527
2789000000,-85.359497
2790000000,-85.422585
2791000000,-85.46804
2792000000,-85.632668
2793000000,-85.40033
2794000000,-85.260529
2795000000,-85.357498
2796000000,-85.440147
2797000000,-85.344597
2798000000,-85.822426
2799000000,-85.658821
2800000000,-85.64534
2801000000,-85.836876
2802000000,-85.722618
2803000000,-85.545036
2804000000,-85.893578
2805000000,-86.073669
2806000000,-85.77607
2807000000,-85.817184
2808000000,-85.964569
2809000000,-85.911766
2810000000,-86.217972
2811000000,-86.05233
2812000000,-85.917137
2813000000,-86.092941
2814000000,-86.063118
2815000000,-86.095215
2816000000,-86.170364
2817000000,-86.383072
2818000000,-86.196419
2819000000,-86.403503
2820000000,-86.298943
2821000000,-86.197357
2822000000,-86.416534
2823000000,-86.215942
2824000000,-86.227028
2825000000,-86.294792
2826000000,-86.481918
2827000000,-86.36924
2828000000,-86.598442
2829000000,-86.461205
2830000000,-86.630569
2831000000,-86.420113
2832000000,-86.504082
2833000000,-86.584221
2834000000,-86.921593
2835000000,-86.664063
2836000000,-86.710762
2837000000,-86.871628
2838000000,-86.745613
2839000000,-86.770462
2840000000,-86.816246
2841000000,-86.834808
2842000000,-87.037201
2843000000,-86.914101
2844000000,-87.233337
2845000000,-86.980057
2846000000,-86.922302
2847000000,-87.098518
2848000000,-87.024681
2849000000,-87.215157
2850000000,-87.234863
2851000000,-87.27462
2852000000,-87.240631
2853000000,-87.132927
2854000000,-87.276573
2855000000,-87.197891
2856000000,-87.398155
2857000000,-87.137428
2858000000,-87.169533
2859000000,-87.395172
2860000000,-87.292007
2861000000,-87.625816
2862000000,-87.396782
2863000000,-87.564384
2864000000,-87.443031
2865000000,-87.585106
2866000000,-87.595467
2867000000,-87.665169
2868000000,-87.962578
2869000000,-87.86412
2870000000,-87.747726
2871000000,-87.944809
2872000000,-87.845749
2873000000,-88.035362
2874000000,-87.92305
2875000000,-87.915619
2876000000,-88.163635
2877000000,-87.988312
2878000000,-87.760246
2879000000,-88.026154
2880000000,-88.164963
2881000000,-87.98558
2882000000,-88.189896
2883000000,-88.041496
2884000000,-88.056381
2885000000,-88.186775
2886000000,-88.340645
2887000000,-88.410965
2888000000,-88.371582
2889000000,-88.30925
2890000000,-88.503029
2891000000,-88.436356
2892000000,-88.47374
2893000000,-88.347458
2894000000,-88.558571
2895000000,-88.526909
2896000000,-88.448196
2897000000,-88.57489
2898000000,-88.438202
2899000000,-88.526344
2900000000,-88.567154
2901000000,-88.947273
2902000000,-88.599396
2903000000,-88.814789
2904000000,-88.720459
2905000000,-88.772156
2906000000,-88.830505
2907000000,-88.828423
2908000000,-88.856674
2909000000,-89.019478
2910000000,-88.785027
2911000000,-88.9664
2912000000,-89.024681
2913000000,-89.070412
2914000000,-89.191101
2915000000,-88.987816
2916000000,-89.291489
2917000000,-89.434853
2918000000,-89.273903
2919000000,-89.189957
2920000000,-89.290939
2921000000,-89.471436
2922000000,-89.519264
2923000000,-89.492355
2924000000,-89.424263
2925000000,-89.343887
2926000000,-89.491554
2927000000,-89.454788
2928000000,-89.357437
2929000000,-89.651382
2930000000,-89.506248
2931000000,-89.418236
2932000000,-89.566902
2933000000,-89.678108
2934000000,-89.831055
2935000000,-89.678841
2936000000,-89.779465
2937000000,-89.787857
2938000000,-89.801659
2939000000,-89.836975
2940000000,-89.81913
2941000000,-89.712204
2942000000,-89.898079
2943000000,-90.110161
2944000000,-90.160378
2945000000,-90.00666
2946000000,-89.945915
2947000000,-90.16433
2948000000,-90.077019
2949000000,-90.037033
2950000000,-90.190819
2951000000,-90.27597
2952000000,-90.167702
2953000000,-90.217331
2954000000,-90.468056
2955000000,-90.273605
2956000000,-90.223732
2957000000,-90.362175
2958000000,-90.235939
2959000000,-90.368904
2960000000,-90.412987
2961000000,-90.696846
2962000000,-90.549706
2963000000,-90.643738
2964000000,-90.553818
2965000000,-90.59124
2966000000,-90.702057
2967000000,-90.869568
2968000000,-90.827141
2969000000,-90.681786
2970000000,-90.573997
2971000000,-90.959435
2972000000,-90.703339
2973000000,-90.81086
2974000000,-91.015091
2975000000,-90.827461
2976000000,-90.832634
2977000000,-90.844574
2978000000,-90.742798
2979000000,-90.95137
2980000000,-91.137215
2981000000,-91.03157
2982000000,-91.022247
2983000000,-91.034332
2984000000,-91.159821
2985000000,-91.220901
2986000000,-91.164955
2987000000,-91.317078
2988000000,-91.263168
2989000000,-91.387794
2990000000,-91.454338
2991000000,-91.382675
2992000000,-91.442261
2993000000,-91.444481
2994000000,-91.279015
2995000000,-91.539635
2996000000,-91.555687
2997000000,-91.726891
2998000000,-91.601395
2999000000,-91.790619
3000000000,-91.622787
3001000000,-91.682068
3002000000,-91.72551
3003000000,-91.662476
3004000000,-91.821739
3005000000,-91.813683
3006000000,-91.845947
3007000000,-91.876534
3008000000,-91.852692
3009000000,-91.951324
3010000000,-91.783951
3011000000,-91.977356
3012000000,-92.100975
3013000000,-92.080093
3014000000,-92.026794
3015000000,-92.18013
3016000000,-92.175354
3017000000,-92.121635
3018000000,-92.079155
3019000000,-92.281464
3020000000,-92.319839
3021000000,-92.13826
3022000000,-92.281044
3023000000,-92.331306
3024000000,-92.280197
3025000000,-92.292503
3026000000,-92.280449
3027000000,-92.706848
3028000000,-92.334496
3029000000,-92.712364
3030000000,-92.660027
3031000000,-92.658531
3032000000,-92.512436
3033000000,-92.737663
3034000000,-92.666527
3035000000,-92.707016
3036000000,-92.557335
3037000000,-92.883102
3038000000,-92.899681
3039000000,-92.8479
3040000000,-92.970528
3041000000,-92.877357
3042000000,-92.81839
3043000000,-92.975777
3044000000,-93.033943
3045000000,-93.002068
3046000000,-93.049789
3047000000,-93.014442
3048000000,-92.978477
3049000000,-93.148857
3050000000,-93.390968
3051000000,-93.232048
3052000000,-93.23774
3053000000,-93.3591
3054000000,-93.046631
3055000000,-93.357338
3056000000,-93.644577
3057000000,-93.418137
3058000000,-93.319283
3059000000,-93.37471
3060000000,-93.625404
3061000000,-93.314865
3062000000,-93.598633
3063000000,-93.507217
3064000000,-93.502426
3065000000,-93.637085
3066000000,-93.412704
3067000000,-93.406425
3068000000,-93.758095
3069000000,-93.714958
3070000000,-93.847862
3071000000,-93.896919
3072000000,-93.667877
3073000000,-93.773964
3074000000,-93.924728
3075000000,-93.985909
3076000000,-93.889
3077000000,-93.87027
3078000000,-94.133911
3079000000,-93.934303
3080000000,-94.110558
3081000000,-94.259354
3082000000,-94.148384
3083000000,-93.864754
3084000000,-94.110031
3085000000,-94.289314
3086000000,-94.255318
3087000000,-94.225693
3088000000,-94.313889
3089000000,-94.188324
3090000000,-94.440552
3091000000,-94.184502
3092000000,-94.37426
3093000000,-94.540161
3094000000,-94.426559
3095000000,-94.545288
3096000000,-94.59201
3097000000,-94.607933
3098000000,-94.440819
3099000000,-94.632111
3100000000,-94.601227
3101000000,-94.733681
3102000000,-94.719025
3103000000,-94.668678
3104000000,-94.907845
3105000000,-94.743668
3106000000,-95.012207
3107000000,-94.820198
3108000000,-95.034027
3109000000,-94.986206
3110000000,-95.069313
3111000000,-95.051399
3112000000,-95.081512
3113000000,-94.916321
3114000000,-94.948219
3115000000,-95.112686
3116000000,-95.188164
3117000000,-95.031349
3118000000,-95.365425
3119000000,-95.309364
3120000000,-95.145416
3121000000,-95.301941
3122000000,-95.350197
3123000000,-95.548943
3124000000,-95.416344
3125000000,-95.579521
3126000000,-95.451561
3127000000,-95.769539
3128000000,-95.533211
3129000000,-95.706154
3130000000,-95.79612
3131000000,-95.5327
3132000000,-95.693436
3133000000,-95.78878
3134000000,-95.845802
3135000000,-95.941368
3136000000,-95.894569
3137000000,-95.835327
3138000000,-95.909325
3139000000,-96.073875
3140000000,-95.854958
3141000000,-95.906143
3142000000,-95.969795
3143000000,-95.892296
3144000000,-95.866562
3145000000,-96.087547
3146000000,-96.178291
3147000000,-96.233215
3148000000,-96.242416
3149000000,-96.312126
3150000000,-96.344406
3151000000,-96.31768
3152000000,-96.411263
3153000000,-96.452705
3154000000,-96.224495
3155000000,-96.444771
3156000000,-96.319237
3157000000,-96.622887
3158000000,-96.375092
3159000000,-96.63208
3160000000,-96.515213
3161000000,-96.616196
3162000000,-96.546593
3163000000,-96.766777
3164000000,-96.933395
3165000000,-96.85334
3166000000,-96.658653
3167000000,-96.907364
3168000000,-96.812668
3169000000,-96.885757
3170000000,-96.928864
3171000000,-96.936249
3172000000,-96.789856
3173000000,-97.021378
3174000000,-97.150871
3175000000,-97.238777
3176000000,-97.177818
3177000000,-97.23494
3178000000,-97.09005
3179000000,-97.192406
3180000000,-97.200081
3181000000,-97.294533
3182000000,-97.309891
3183000000,-97.272835
3184000000,-97.616051
3185000000,-97.29631
3186000000,-97.466347
3187000000,-97.432762
3188000000,-97.689934
3189000000,-97.711937
3190000000,-97.445251
3191000000,-97.540154
3192000000,-97.684319
3193000000,-97.540451
3194000000,-97.849144
3195000000,-97.740463
3196000000,-97.678177
3197000000,-97.723175
3198000000,-97.813896
3199000000,-97.802994
3200000000,-97.729263
3201000000,-97.948021
3202000000,-98.033997
3203000000,-97.844177
3204000000,-97.97065
3205000000,-98.05867
3206000000,-97.957008
3207000000,-98.073395
3208000000,-98.05513
3209000000,-98.094254
3210000000,-98.062599
3211000000,-98.193588
3212000000,-98.143433
3213000000,-98.047012
3214000000,-98.450523
3215000000,-98.115578
3216000000,-98.237961
3217000000,-98.388367
3218000000,-98.395157
3219000000,-98.380539
3220000000,-98.751297
3221000000,-98.354301
3222000000,-98.700829
3223000000,-98.580078
3224000000,-98.721886
3225000000,-98.588364
3226000000,-98.66571
3227000000,-98.941483
3228000000,-98.875954
3229000000,-98.819557
3230000000,-98.922432
3231000000,-98.92971
3232000000,-98.866501
3233000000,-98.94957
3234000000,-99.143028
3235000000,-98.978455
3236000000,-99.018593
3237000000,-99.188042
3238000000,-99.227036
3239000000,-98.966652
3240000000,-99.109642
3241000000,-99.183411
3242000000,-99.368393
3243000000,-99.117744
3244000000,-99.33136
3245000000,-99.552116
3246000000,-99.229843
3247000000,-99.548546
3248000000,-99.428391
3249000000,-99.360863
3250000000,-99.333633
3251000000,-99.528534
3252000000,-99.797829
3253000000,-99.751564
3254000000,-99.593948
3255000000,-99.674736
3256000000,-99.704727
3257000000,-99.585579
3258000000,-99.80172
3259000000,-99.828888
3260000000,-99.965103
3261000000,-99.900032
3262000000,-99.796692
3263000000,-100.01057
3264000000,-100.21387
3265000000,-99.963127
3266000000,-100.07118
3267000000,-99.943123
3268000000,-100.18144
3269000000,-100.0543
3270000000,-100.2979
3271000000,-100.25142
3272000000,-100.21059
3273000000,-100.19949
3274000000,-100.16493
3275000000,-100.39333
3276000000,-100.26494
3277000000,-100.54001
3278000000,-100.53091
3279000000,-100.44038
3280000000,-100.54292
3281000000,-100.68723
3282000000,-100.47274
3283000000,-100.67355
3284000000,-100.4163
3285000000,-100.70226
3286000000,-100.62469
3287000000,-100.79463
3288000000,-100.66331
3289000000,-100.74819
3290000000,-100.79606
3291000000,-100.83745
3292000000,-101.03959
3293000000,-100.87407
3294000000,-100.82662
3295000000,-100.86966
3296000000,-101.03669
3297000000,-100.93918
3298000000,-100.84119
3299000000,-101.10893
3300000000,-101.28722
3301000000,-101.15922
3302000000,-101.20541
3303000000,-101.03348
3304000000,-101.35275
3305000000,-101.12629
3306000000,-101.3939
3307000000,-101.41022
3308000000,-101.17397
3309000000,-101.51348
3310000000,-101.37572
3311000000,-101.41153
3312000000,-101.65795
3313000000,-101.66553
3314000000,-101.43457
3315000000,-101.62215
3316000000,-101.65234
3317000000,-101.7621
3318000000,-101.90383
3319000000,-101.55347
3320000000,-101.76725
3321000000,-101.90592
3322000000,-101.91889
3323000000,-102.00662
3324000000,-101.97523
3325000000,-101.78079
3326000000,-101.89431
3327000000,-101.90705
3328000000,-102.10281
3329000000,-101.99503
3330000000,-102.05565
3331000000,-101.90257
3332000000,-102.12277
3333000000,-102.01864
3334000000,-102.23653
3335000000,-102.20815
3336000000,-102.18719
3337000000,-102.03387
3338000000,-102.40427
3339000000,-102.08607
3340000000,-102.4464
3341000000,-102.3443
3342000000,-102.34013
3343000000,-102.49288
3344000000,-102.50377
3345000000,-102.5867
3346000000,-102.6422
3347000000,-102.49651
3348000000,-102.64113
3349000000,-102.7553
3350000000,-102.66914
3351000000,-102.84924
3352000000,-102.68537
3353000000,-102.65666
3354000000,-102.77434
3355000000,-102.8016
3356000000,-102.71203
3357000000,-103.09464
3358000000,-103.09776
3359000000,-103.0445
3360000000,-103.28152
3361000000,-103.03678
3362000000,-102.89868
3363000000,-103.24117
3364000000,-103.19338
3365000000,-103.24304
3366000000,-102.8698
3367000000,-103.27013
3368000000,-103.28108
3369000000,-103.37589
3370000000,-103.65791
3371000000,-103.34695
3372000000,-103.39198
3373000000,-103.55502
3374000000,-103.39677
3375000000,-103.46586
3376000000,-103.58665
3377000000,-103.59428
3378000000,-103.62714
3379000000,-103.75676
3380000000,-103.63062
3381000000,-103.56239
3382000000,-103.47231
3383000000,-103.71323
3384000000,-103.67647
3385000000,-103.89935
3386000000,-104.02932
3387000000,-103.74489
3388000000,-103.97266
3389000000,-103.96695
3390000000,-104.13924
3391000000,-103.86494
3392000000,-103.90756
3393000000,-104.05509
3394000000,-103.98775
3395000000,-104.19031
3396000000,-104.14034
3397000000,-104.10037
3398000000,-104.27081
3399000000,-104.13363
3400000000,-104.17113
3401000000,-104.18304
3402000000,-104.30717
3403000000,-104.40826
3404000000,-104.53845
3405000000,-104.39181
3406000000,-104.38981
3407000000,-104.52588
3408000000,-104.28535
3409000000,-104.58846
3410000000,-104.59862
3411000000,-104.38045
3412000000,-104.65209
3413000000,-104.46433
3414000000,-104.54524
3415000000,-104.57143
3416000000,-104.80364
3417000000,-104.73949
3418000000,-104.92287
3419000000,-104.72942
3420000000,-104.79679
3421000000,-104.74107
3422000000,-104.99783
3423000000,-104.81721
3424000000,-104.85425
3425000000,-105.00417
3426000000,-105.14818
3427000000,-105.21062
3428000000,-105.04979
3429000000,-105.12432
3430000000,-105.12051
3431000000,-104.97159
3432000000,-105.29271
3433000000,-105.24029
3434000000,-105.2552
3435000000,-105.2063
3436000000,-105.35671
3437000000,-105.48025
3438000000,-105.20708
3439000000,-105.58035
3440000000,-105.4232
3441000000,-105.32325
3442000000,-105.47777
3443000000,-105.64124
3444000000,-105.51575
3445000000,-105.63303
3446000000,-105.60056
3447000000,-105.79872
3448000000,-105.51685
3449000000,-105.66376
3450000000,-105.53746
3451000000,-105.72462
3452000000,-105.71902
3453000000,-106.00224
3454000000,-105.74957
3455000000,-105.89525
3456000000,-105.98372
3457000000,-105.85464
3458000000,-105.8391
3459000000,-105.75098
3460000000,-105.99711
3461000000,-106.21129
3462000000,-106.07435
3463000000,-106.21726
3464000000,-106.20654
3465000000,-106.15289
3466000000,-106.41611
3467000000,-105.93945
3468000000,-106.2038
3469000000,-106.3026
3470000000,-106.35174
3471000000,-106.24691
3472000000,-106.59841
3473000000,-106.40313
3474000000,-106.54038
3475000000,-106.46942
3476000000,-106.67427
3477000000,-106.4593
3478000000,-106.61298
3479000000,-106.50761
3480000000,-106.49533
3481000000,-106.78181
3482000000,-106.73156
3483000000,-106.41473
3484000000,-106.78641
3485000000,-106.91837
3486000000,-106.72075
3487000000,-106.88126
3488000000,-106.97993
3489000000,-106.81113
3490000000,-106.92133
3491000000,-106.80935
3492000000,-107.02325
3493000000,-107.11846
3494000000,-107.1665
3495000000,-107.1049
3496000000,-106.87089
3497000000,-107.11722
3498000000,-106.99296
3499000000,-107.16329
3500000000,-107.30191
3501000000,-107.11604
3502000000,-107.16758
3503000000,-107.48441
3504000000,-107.25941
3505000000,-107.30965
3506000000,-107.27031
3507000000,-107.53432
3508000000,-107.57252
3509000000,-107.50398
3510000000,-107.75727
3511000000,-107.70496
3512000000,-107.72057
3513000000,-107.5079
3514000000,-107.66688
3515000000,-107.74129
3516000000,-107.72822
3517000000,-107.69439
3518000000,-107.75456
3519000000,-107.85178
3520000000,-107.52345
3521000000,-107.8178
3522000000,-107.93902
3523000000,-107.98612
3524000000,-107.92459
3525000000,-108.14935
3526000000,-107.87087
3527000000,-108.09889
3528000000,-108.01242
3529000000,-108.02995
3530000000,-108.4472
3531000000,-108.22707
3532000000,-108.20161
3533000000,-108.1324
3534000000,-108.40913
3535000000,-108.33279
3536000000,-108.11422
3537000000,-108.24263
3538000000,-108.61543
3539000000,-108.41439
3540000000,-108.28599
3541000000,-108.53413
3542000000,-108.56387
3543000000,-108.50877
3544000000,-108.47773
3545000000,-108.56226
3546000000,-108.77943
3547000000,-108.62193
3548000000,-108.64114
3549000000,-108.6955
3550000000,-108.76302
3551000000,-108.86437
3552000000,-108.70558
3553000000,-108.97761
3554000000,-108.81869
3555000000,-108.77114
3556000000,-108.86639
3557000000,-108.92416
3558000000,-108.86983
3559000000,-108.81738
3560000000,-109.05864
3561000000,-109.1734
3562000000,-109.0247
3563000000,-109.26311
3564000000,-109.11965
3565000000,-109.19402
3566000000,-109.13534
3567000000,-109.16671
3568000000,-109.35226
3569000000,-109.45501
3570000000,-109.19215
3571000000,-109.28292
3572000000,-109.38634
3573000000,-109.27951
3574000000,-109.34329
3575000000,-109.44805
3576000000,-109.63691
3577000000,-109.36474
3578000000,-109.51668
3579000000,-109.46072
3580000000,-109.42929
3581000000,-109.50919
3582000000,-109.59691
3583000000,-109.5815
3584000000,-109.64558
3585000000,-109.72521
3586000000,-109.84395
3587000000,-109.82343
3588000000,-109.79094
3589000000,-109.9017
3590000000,-109.65311
3591000000,-109.97147
3592000000,-110.12686
3593000000,-109.70158
3594000000,-110.12744
3595000000,-110.03345
3596000000,-109.99122
3597000000,-110.1857
3598000000,-110.23703
3599000000,-110.09503
3600000000,-110.22752
3601000000,-110.24879
3602000000,-110.19357
3603000000,-110.38227
3604000000,-110.22656
3605000000,-110.28938
3606000000,-110.3567
3607000000,-110.43639
3608000000,-110.35488
3609000000,-110.64336
3610000000,-110.51886
3611000000,-110.49393
3612000000,-110.41052
3613000000,-110.64336
3614000000,-110.5164
3615000000,-110.61495
3616000000,-110.61848
3617000000,-110.67991
3618000000,-110.89735
3619000000,-110.79507
3620000000,-110.75285
3621000000,-110.8103
3622000000,-110.6396
3623000000,-110.76264
3624000000,-110.82318
3625000000,-110.96292
3626000000,-110.92589
3627000000,-110.78536
3628000000,-111.09705
3629000000,-110.95414
3630000000,-110.95632
3631000000,-110.9698
3632000000,-110.88426
3633000000,-111.18748
3634000000,-111.25076
3635000000,-111.1724
3636000000,-111.01175
3637000000,-111.28817
3638000000,-111.26016
3639000000,-111.39317
3640000000,-111.4558
3641000000,-111.40724
3642000000,-111.46519
3643000000,-111.31391
3644000000,-111.5181
3645000000,-111.53663
3646000000,-111.45497
3647000000,-111.47338
3648000000,-111.65117
3649000000,-111.73573
3650000000,-111.70147
3651000000,-111.44425
3652000000,-111.70445
3653000000,-111.64845
3654000000,-111.82367
3655000000,-111.70629
3656000000,-111.79831
3657000000,-111.87733
3658000000,-111.6927
3659000000,-111.85482
3660000000,-111.81334
3661000000,-111.87859
3662000000,-112.1064
3663000000,-111.75163
3664000000,-111.96014
3665000000,-111.95068
3666000000,-111.96041
3667000000,-112.26996
3668000000,-112.13592
3669000000,-112.22031
3670000000,-112.35496
3671000000,-112.24738
3672000000,-112.08103
3673000000,-112.36113
3674000000,-112.39267
3675000000,-112.49668
3676000000,-112.31779
3677000000,-112.49734
3678000000,-112.41949
3679000000,-112.39384
3680000000,-112.41906
3681000000,-112.53097
3682000000,-112.63669
3683000000,-112.65276
3684000000,-112.46416
3685000000,-112.53
3686000000,-112.87652
3687000000,-112.62746
3688000000,-112.75438
3689000000,-112.81672
3690000000,-112.6317
3691000000,-112.7997
3692000000,-112.98898
3693000000,-112.73505
3694000000,-112.95322
3695000000,-112.9252
3696000000,-112.71876
3697000000,-112.9783
3698000000,-113.05096
3699000000,-113.04639
3700000000,-113.13
3701000000,-112.80492
3702000000,-113.07095
3703000000,-113.1552
3704000000,-113.4519
3705000000,-113.19012
3706000000,-113.28708
3707000000,-113.18579
3708000000,-113.39113
3709000000,-113.366
3710000000,-113.4109
3711000000,-113.43246
3712000000,-113.45062
3713000000,-113.44924
3714000000,-113.54327
3715000000,-113.67992
3716000000,-113.51759
3717000000,-113.70098
3718000000,-113.79903
3719000000,-113.72899
3720000000,-113.74427
3721000000,-113.59602
3722000000,-113.88192
3723000000,-113.88474
3724000000,-113.83122
3725000000,-113.80921
3726000000,-113.87317
3727000000,-113.98302
3728000000,-113.87807
3729000000,-113.83511
3730000000,-114.05364
3731000000,-114.09114
3732000000,-113.98777
3733000000,-114.2942
3734000000,-114.13633
3735000000,-114.19526
3736000000,-114.28639
3737000000,-114.29745
3738000000,-114.3834
3739000000,-114.23109
3740000000,-114.26054
3741000000,-114.40942
3742000000,-114.43916
3743000000,-114.5378
3744000000,-114.47964
3745000000,-114.44696
3746000000,-114.49862
3747000000,-114.61874
3748000000,-114.57994
3749000000,-114.60799
3750000000,-114.65201
3751000000,-114.67304
3752000000,-114.69481
3753000000,-114.70135
3754000000,-114.84464
3755000000,-114.71177
3756000000,-114.77402
3757000000,-114.82947
3758000000,-114.86519
3759000000,-114.8764
3760000000,-114.99793
3761000000,-115.03497
3762000000,-114.97576
3763000000,-115.00443
3764000000,-115.09158
3765000000,-114.99979
3766000000,-115.18346
3767000000,-115.07036
3768000000,-115.15381
3769000000,-115.34934
3770000000,-115.39464
3771000000,-115.16138
3772000000,-115.21953
3773000000,-115.29729
3774000000,-115.29526
3775000000,-115.34074
3776000000,-115.36646
3777000000,-115.48618
3778000000,-115.3559
3779000000,-115.64416
3780000000,-115.46767
3781000000,-115.55389
3782000000,-115.7163
3783000000,-115.59271
3784000000,-115.676
3785000000,-115.65891
3786000000,-115.77352
3787000000,-115.77378
3788000000,-115.8144
3789000000,-115.95634
3790000000,-115.94152
3791000000,-115.9114
3792000000,-116.06658
3793000000,-115.9925
3794000000,-115.7599
3795000000,-116.01265
3796000000,-116.15369
3797000000,-116.05643
3798000000,-116.19531
3799000000,-116.11428
3800000000,-116.38813
3801000000,-116.29646
3802000000,-116.41939
3803000000,-116.25523
3804000000,-116.31657
3805000000,-116.53942
3806000000,-116.33418
3807000000,-116.31453
3808000000,-116.5661
3809000000,-116.53548
3810000000,-116.62577
3811000000,-116.62493
3812000000,-116.42773
3813000000,-116.50457
3814000000,-116.59282
3815000000,-116.6368
3816000000,-116.62495
3817000000,-116.64653
3818000000,-116.87527
3819000000,-116.67355
3820000000,-117.0236
3821000000,-116.9708
3822000000,-116.91074
3823000000,-116.94821
3824000000,-116.98976
3825000000,-117.18169
3826000000,-117.00555
3827000000,-117.06308
3828000000,-117.22054
3829000000,-117.20243
3830000000,-117.32764
3831000000,-117.17613
3832000000,-117.36309
3833000000,-117.22063
3834000000,-117.2982
3835000000,-117.35992
3836000000,-117.43405
3837000000,-117.26627
3838000000,-117.18631
3839000000,-117.41945
3840000000,-117.39352
3841000000,-117.33859
3842000000,-117.4487
3843000000,-117.53957
3844000000,-117.73679
3845000000,-117.44655
3846000000,-117.47461
3847000000,-117.73024
3848000000,-117.72601
3849000000,-117.73468
3850000000,-118.00417
3851000000,-117.8018
3852000000,-117.7881
3853000000,-118.01455
3854000000,-117.80671
3855000000,-118.04407
3856000000,-118.05027
3857000000,-118.14141
3858000000,-117.98055
3859000000,-117.99592
3860000000,-118.16476
3861000000,-118.10486
3862000000,-118.32072
3863000000,-118.08325
3864000000,-118.22552
3865000000,-118.31639
3866000000,-118.44675
3867000000,-118.31601
3868000000,-118.26675
3869000000,-118.3837
3870000000,-118.47073
3871000000,-118.44753
3872000000,-118.58336
3873000000,-118.54554
3874000000,-118.44638
3875000000,-118.59869
3876000000,-118.60165
3877000000,-118.62327
3878000000,-118.44434
3879000000,-118.67179
3880000000,-118.77629
3881000000,-118.65546
3882000000,-118.74259
3883000000,-118.81643
3884000000,-118.85472
3885000000,-119.02807
3886000000,-118.9257
3887000000,-118.94109
3888000000,-118.83092
3889000000,-119.08346
3890000000,-119.00629
3891000000,-119.12177
3892000000,-119.02721
3893000000,-119.18821
3894000000,-119.13226
3895000000,-119.33244
3896000000,-119.27982
3897000000,-119.36306
3898000000,-119.34968
3899000000,-119.36885
3900000000,-119.44993
3901000000,-119.42751
3902000000,-119.48644
3903000000,-119.59302
3904000000,-119.50004
3905000000,-119.5304
3906000000,-119.41138
3907000000,-119.38492
3908000000,-119.73048
3909000000,-119.64713
3910000000,-119.88844
3911000000,-119.82338
3912000000,-119.67904
3913000000,-119.90407
3914000000,-119.7579
3915000000,-119.71042
3916000000,-119.8079
3917000000,-119.86536
3918000000,-119.95759
3919000000,-119.87862
3920000000,-120.10121
3921000000,-120.02626
3922000000,-120.15663
3923000000,-120.04207
3924000000,-120.02701
3925000000,-120.31179
3926000000,-120.09497
3927000000,-120.19249
3928000000,-120.35087
3929000000,-120.22166
3930000000,-120.19415
3931000000,-120.28615
3932000000,-120.57294
3933000000,-120.41142
3934000000,-120.43304
3935000000,-120.38285
3936000000,-120.39168
3937000000,-120.50456
3938000000,-120.55922
3939000000,-120.7613
3940000000,-120.65578
3941000000,-120.79027
3942000000,-120.73835
3943000000,-120.89223
3944000000,-120.66282
3945000000,-120.89343
3946000000,-120.84087
3947000000,-120.8518
3948000000,-121.03527
3949000000,-121.14281
3950000000,-121.05122
3951000000,-121.15759
3952000000,-121.12569
3953000000,-121.0675
3954000000,-120.99359
3955000000,-121.26234
3956000000,-121.04483
3957000000,-121.36347
3958000000,-121.16051
3959000000,-121.51727
3960000000,-121.21594
3961000000,-121.4397
3962000000,-121.42799
3963000000,-121.42996
3964000000,-121.41922
3965000000,-121.36705
3966000000,-121.54237
3967000000,-121.47362
3968000000,-121.77326
3969000000,-121.69187
3970000000,-121.66158
3971000000,-121.82685
3972000000,-121.84873
3973000000,-121.83157
3974000000,-122.00115
3975000000,-121.82777
3976000000,-121.86555
3977000000,-121.93498
3978000000,-121.87457
3979000000,-122.01554
3980000000,-122.09708
3981000000,-121.93742
3982000000,-122.01254
3983000000,-122.2197
3984000000,-122.15108
3985000000,-122.12687
3986000000,-122.23093
3987000000,-122.2971
3988000000,-122.36279
3989000000,-122.28571
3990000000,-122.14116
3991000000,-122.16456
3992000000,-122.41602
3993000000,-122.42966
3994000000,-122.55287
3995000000,-122.48643
3996000000,-122.44444
3997000000,-122.61263
3998000000,-122.55621
3999000000,-122.55787
4000000000,-122.81641
4001000000,-122.60632
4002000000,-122.58932
4003000000,-122.70325
4004000000,-122.85851
4005000000,-122.79491
4006000000,-122.7633
4007000000,-122.78738
4008000000,-122.83177
4009000000,-122.97978
4010000000,-122.98204
4011000000,-122.99847
4012000000,-122.98286
4013000000,-123.28779
4014000000,-123.02967
4015000000,-123.17211
4016000000,-123.30383
4017000000,-123.20706
4018000000,-123.16605
4019000000,-123.32536
4020000000,-123.27687
4021000000,-123.12905
4022000000,-123.20205
4023000000,-123.31048
4024000000,-123.31644
4025000000,-123.45366
4026000000,-123.41794
4027000000,-123.32378
4028000000,-123.60272
4029000000,-123.69089
4030000000,-123.55042
4031000000,-123.49191
4032000000,-123.60916
4033000000,-123.74403
4034000000,-123.63226
4035000000,-123.62644
4036000000,-123.96368
4037000000,-123.80751
4038000000,-123.89197
4039000000,-124.0223
4040000000,-123.59663
4041000000,-124.00465
4042000000,-123.92303
4043000000,-124.05379
4044000000,-123.84644
4045000000,-123.8922
4046000000,-124.08586
4047000000,-124.11159
4048000000,-124.07843
4049000000,-124.03311
4050000000,-124.21299
4051000000,-124.25917
4052000000,-124.22286
4053000000,-124.16604
4054000000,-124.31466
4055000000,-124.19913
4056000000,-124.47572
4057000000,-124.33748
4058000000,-124.61249
4059000000,-124.58839
4060000000,-124.52831
4061000000,-124.64276
4062000000,-124.62978
4063000000,-124.79372
4064000000,-124.60665
4065000000,-124.34856
4066000000,-124.83132
4067000000,-124.65587
4068000000,-124.86282
4069000000,-124.81848
4070000000,-125.03915
4071000000,-124.88519
4072000000,-124.77196
4073000000,-124.89866
4074000000,-124.93628
4075000000,-124.99614
4076000000,-125.03984
4077000000,-125.13888
4078000000,-125.06403
4079000000,-125.08971
4080000000,-125.0073
4081000000,-125.13019
4082000000,-125.23047
4083000000,-125.21365
4084000000,-125.34442
4085000000,-125.25753
4086000000,-125.49435
4087000000,-125.46402
4088000000,-125.43523
4089000000,-125.51022
4090000000,-125.55207
4091000000,-125.46468
4092000000,-125.43274
4093000000,-125.55194
4094000000,-125.56732
4095000000,-125.69943
4096000000,-125.62061
4097000000,-125.69909
4098000000,-125.69382
4099000000,-125.74473
4100000000,-125.90071
4101000000,-125.882
4102000000,-125.872
4103000000,-125.88634
4104000000,-125.74832
4105000000,-126.03497
4106000000,-126.05244
4107000000,-125.9816
4108000000,-125.93204
4109000000,-125.93748
4110000000,-126.07249
4111000000,-126.13961
4112000000,-126.27765
4113000000,-126.19704
4114000000,-126.07748
4115000000,-126.53906
4116000000,-126.19493
4117000000,-126.32464
4118000000,-126.0825
4119000000,-126.35032
4120000000,-126.2695
4121000000,-126.53408
4122000000,-126.39305
4123000000,-126.54674
4124000000,-126.51849
4125000000,-126.46479
4126000000,-126.67667
4127000000,-126.76364
4128000000,-126.66158
4129000000,-126.46612
4130000000,-126.62042
4131000000,-126.87216
4132000000,-126.68208
4133000000,-126.65481
4134000000,-126.80199
4135000000,-126.87239
4136000000,-126.84758
4137000000,-126.86238
4138000000,-126.71161
4139000000,-126.98917
4140000000,-127.00725
4141000000,-126.95644
4142000000,-126.99764
4143000000,-127.01321
4144000000,-126.92422
4145000000,-127.00487
4146000000,-127.27118
4147000000,-127.19917
4148000000,-127.24426
4149000000,-127.37148
4150000000,-127.36308
4151000000,-127.26662
4152000000,-127.20342
4153000000,-127.45479
4154000000,-127.40979
4155000000,-127.46146
4156000000,-127.68554
4157000000,-127.57516
4158000000,-127.40277
4159000000,-127.59962
4160000000,-127.42516
4161000000,-127.50571
4162000000,-127.57055
4163000000,-127.50371
4164000000,-127.62874
4165000000,-127.70992
4166000000,-127.75487
4167000000,-127.69593
4168000000,-127.82674
4169000000,-127.9089
4170000000,-127.90385
4171000000,-127.91391
4172000000,-127.95161
4173000000,-127.98335
4174000000,-127.80829
4175000000,-128.0361
4176000000,-128.08548
4177000000,-128.15765
4178000000,-127.89787
4179000000,-128.16106
4180000000,-128.11348
4181000000,-128.28308
4182000000,-128.14285
4183000000,-128.20836
4184000000,-128.23099
4185000000,-128.21223
4186000000,-128.44516
4187000000,-128.37863
4188000000,-128.29807
4189000000,-128.3373
4190000000,-128.4238
4191000000,-128.65645
4192000000,-128.35594
4193000000,-128.47772
4194000000,-128.58727
4195000000,-128.57309
4196000000,-128.55582
4197000000,-128.65654
4198000000,-128.77498
4199000000,-128.74133
4200000000,-128.78795
4201000000,-128.95399
4202000000,-128.79845
4203000000,-128.74956
4204000000,-128.92151
4205000000,-128.89001
4206000000,-129.08679
4207000000,-128.94571
4208000000,-129.07468
4209000000,-129.16306
4210000000,-128.8049
4211000000,-129.20723
4212000000,-129.14331
4213000000,-129.01605
4214000000,-129.12811
4215000000,-129.05125
4216000000,-129.29694
4217000000,-129.25706
4218000000,-129.22171
4219000000,-129.21474
4220000000,-129.3484
4221000000,-129.46834
4222000000,-129.52597
4223000000,-129.50676
4224000000,-129.55284
4225000000,-129.43327
4226000000,-129.5806
4227000000,-129.63329
4228000000,-129.57532
4229000000,-129.65082
4230000000,-129.63824
4231000000,-129.73918
4232000000,-129.83176
4233000000,-129.7637
4234000000,-129.63408
4235000000,-129.84395
4236000000,-129.92535
4237000000,-129.85493
4238000000,-129.9886
4239000000,-129.85783
4240000000,-129.97849
4241000000,-130.1037
4242000000,-130.05669
4243000000,-129.97908
4244000000,-130.20067
4245000000,-130.14003
4246000000,-130.06302
4247000000,-130.01041
4248000000,-130.00528
4249000000,-130.16452
4250000000,-130.27625
4251000000,-130.14621
4252000000,-130.34198
4253000000,-130.20985
4254000000,-130.31352
4255000000,-130.38649
4256000000,-130.5097
4257000000,-130.53587
4258000000,-130.39162
4259000000,-130.65221
4260000000,-130.51945
4261000000,-130.59798
4262000000,-130.54672
4263000000,-130.69138
4264000000,-130.5352
4265000000,-130.63821
4266000000,-130.83209
4267000000,-130.81839
4268000000,-130.74123
4269000000,-130.73274
4270000000,-130.84901
4271000000,-130.91029
4272000000,-130.99333
4273000000,-131.02679
4274000000,-130.91084
4275000000,-130.89877
4276000000,-131.03658
4277000000,-131.14844
4278000000,-130.97375
4279000000,-131.09784
4280000000,-131.03474
4281000000,-131.11438
4282000000,-131.18787
4283000000,-131.11797
4284000000,-131.17009
4285000000,-131.2388
4286000000,-131.35303
4287000000,-131.28174
4288000000,-131.37044
4289000000,-131.4201
4290000000,-131.40283
4291000000,-131.37726
4292000000,-131.33264
4293000000,-131.37358
4294000000,-131.60382
4295000000,-131.62233
4296000000,-131.55209
4297000000,-131.63809
4298000000,-131.63025
4299000000,-131.71802
4300000000,-131.76457
4301000000,-131.85046
4302000000,-131.75102
4303000000,-131.82233
4304000000,-131.91647
4305000000,-131.80412
4306000000,-131.79134
4307000000,-131.85275
4308000000,-131.98108
4309000000,-131.98541
4310000000,-132.05309
4311000000,-132.06628
4312000000,-132.14169
4313000000,-132.08168
4314000000,-132.08556
4315000000,-131.92891
4316000000,-132.14487
4317000000,-132.12738
4318000000,-132.33969
4319000000,-132.23625
4320000000,-132.21822
4321000000,-132.24934
4322000000,-132.35451
4323000000,-132.35493
4324000000,-132.24768
4325000000,-132.39374
4326000000,-132.37784
4327000000,-132.39392
4328000000,-132.57927
4329000000,-132.3416
4330000000,-132.5766
4331000000,-132.56241
4332000000,-132.65782
4333000000,-132.57703
4334000000,-132.75323
4335000000,-132.77611
4336000000,-132.70091
4337000000,-132.71564
4338000000,-132.6376
4339000000,-132.76245
4340000000,-132.64928
4341000000,-132.91985
4342000000,-132.81464
4343000000,-133.01205
4344000000,-132.90251
4345000000,-133.16385
4346000000,-133.117
4347000000,-133.08957
4348000000,-133.25618
4349000000,-133.08803
4350000000,-133.18797
4351000000,-133.2641
4352000000,-133.25401
4353000000,-133.00673
4354000000,-133.17467
4355000000,-133.24382
4356000000,-133.49791
4357000000,-133.49059
4358000000,-133.26794
4359000000,-133.37923
4360000000,-133.4068
4361000000,-133.5784
4362000000,-133.42477
4363000000,-133.66391
4364000000,-133.47528
4365000000,-133.54726
4366000000,-133.60487
4367000000,-133.58673
4368000000,-133.69565
4369000000,-133.63292
4370000000,-133.64925
4371000000,-133.77051
4372000000,-133.65096
4373000000,-133.78496
4374000000,-134.02214
4375000000,-133.67973
4376000000,-133.90829
4377000000,-133.77029
4378000000,-133.89584
4379000000,-134.04503
4380000000,-133.90605
4381000000,-133.88191
4382000000,-133.77011
4383000000,-134.10066
4384000000,-134.09819
4385000000,-134.20602
4386000000,-134.2077
4387000000,-134.34581
4388000000,-134.41066
4389000000,-134.40778
4390000000,-134.47777
4391000000,-134.35359
4392000000,-134.42043
4393000000,-134.29988
4394000000,-134.39233
4395000000,-134.4113
4396000000,-134.38052
4397000000,-134.38478
4398000000,-134.49628
4399000000,-134.49734
4400000000,-134.52736
4401000000,-134.60316
4402000000,-134.63689
4403000000,-134.7406
4404000000,-134.61508
4405000000,-134.66327
4406000000,-134.7812
4407000000,-134.69191
4408000000,-134.84874
4409000000,-134.73853
4410000000,-134.78615
4411000000,-134.86371
4412000000,-134.85934
4413000000,-134.84569
4414000000,-135.05611
4415000000,-135.02602
4416000000,-135.02658
4417000000,-135.13316
4418000000,-135.15639
4419000000,-135.14922
4420000000,-135.2684
4421000000,-135.14035
4422000000,-135.24973
4423000000,-135.15254
4424000000,-135.3107
4425000000,-135.24094
4426000000,-135.27856
4427000000,-135.36533
4428000000,-135.18842
4429000000,-135.31311
4430000000,-135.27052
4431000000,-135.57416
4432000000,-135.45345
4433000000,-135.4398
4434000000,-135.508
4435000000,-135.52405
4436000000,-135.69379
4437000000,-135.60744
4438000000,-135.59589
4439000000,-135.5564
4440000000,-135.73778
4441000000,-135.7166
4442000000,-135.82741
4443000000,-135.7881
4444000000,-135.6433
4445000000,-135.77702
4446000000,-136.03683
4447000000,-135.81107
4448000000,-135.97299
4449000000,-135.97574
4450000000,-136.01125
4451000000,-135.91031
4452000000,-136.1097
4453000000,-136.19876
4454000000,-136.02911
4455000000,-136.15617
4456000000,-136.19814
4457000000,-136.1212
4458000000,-136.34012
4459000000,-136.26781
4460000000,-136.22461
4461000000,-136.34679
4462000000,-136.29109
4463000000,-136.17696
4464000000,-136.34926
4465000000,-136.4919
4466000000,-136.33847
4467000000,-136.4599
4468000000,-136.37172
4469000000,-136.49615
4470000000,-136.54787
4471000000,-136.52698
4472000000,-136.70343
4473000000,-136.48904
4474000000,-136.63223
4475000000,-136.56024
4476000000,-136.68134
4477000000,-136.79298
4478000000,-136.69582
4479000000,-136.73123
4480000000,-136.98878
4481000000,-136.95473
4482000000,-136.76216
4483000000,-136.9445
4484000000,-136.72026
4485000000,-136.93402
4486000000,-136.94846
4487000000,-136.9437
4488000000,-137.19753
4489000000,-137.06686
4490000000,-136.97658
4491000000,-137.092
4492000000,-137.1127
4493000000,-137.12152
4494000000,-137.29399
4495000000,-137.26653
4496000000,-137.08432
4497000000,-137.1673
4498000000,-137.53856
4499000000,-137.41637
4500000000,-137.37343
4501000000,-137.25009
4502000000,-137.4249
4503000000,-137.46866
4504000000,-137.61176
4505000000,-137.56339
4506000000,-137.63243
4507000000,-137.72215
4508000000,-137.60741
4509000000,-137.60896
4510000000,-137.91206
4511000000,-137.77708
4512000000,-137.82469
4513000000,-137.73653
4514000000,-137.92174
4515000000,-137.81952
4516000000,-137.80464
4517000000,-138.06747
4518000000,-137.87364
4519000000,-137.93387
4520000000,-137.87946
4521000000,-137.99875
4522000000,-138.04927
4523000000,-138.05043
4524000000,-137.99843
4525000000,-138.29732
4526000000,-138.22586
4527000000,-138.25136
4528000000,-138.28418
4529000000,-138.34166
4530000000,-138.27324
4531000000,-138.29568
4532000000,-138.33275
4533000000,-138.30981
4534000000,-138.37576
4535000000,-138.47954
4536000000,-138.42996
4537000000,-138.46126
4538000000,-138.43169
4539000000,-138.63722
4540000000,-138.80426
4541000000,-138.7077
4542000000,-138.69275
4543000000,-138.60918
4544000000,-138.78807
4545000000,-138.76614
4546000000,-138.75052
4547000000,-138.70663
4548000000,-138.84822
4549000000,-138.90196
4550000000,-139.01372
4551000000,-138.99348
4552000000,-138.89645
4553000000,-138.81281
4554000000,-139.06201
4555000000,-139.11258
4556000000,-139.14436
4557000000,-139.30444
4558000000,-139.16481
4559000000,-139.1181
4560000000,-139.28795
4561000000,-139.20232
4562000000,-139.18025
4563000000,-139.4445
4564000000,-139.36304
4565000000,-139.36708
4566000000,-139.43347
4567000000,-139.52055
4568000000,-139.40295
4569000000,-139.75244
4570000000,-139.56273
4571000000,-139.69138
4572000000,-139.66103
4573000000,-139.62346
4574000000,-139.71173
4575000000,-139.71889
4576000000,-139.7215
4577000000,-139.86424
4578000000,-139.96103
4579000000,-139.85716
4580000000,-139.84674
4581000000,-139.78151
4582000000,-139.90062
4583000000,-140.05464
4584000000,-140.0284
4585000000,-140.06595
4586000000,-140.03621
4587000000,-140.11859
4588000000,-140.18335
4589000000,-140.28049
4590000000,-140.14667
4591000000,-140.54401
4592000000,-140.33138
4593000000,-140.33817
4594000000,-140.38121
4595000000,-140.35948
4596000000,-140.31398
4597000000,-140.43227
4598000000,-140.42728
4599000000,-140.56279
4600000000,-140.50865
4601000000,-140.70148
4602000000,-140.78026
4603000000,-140.78401
4604000000,-140.758
4605000000,-140.59004
4606000000,-140.70816
4607000000,-140.91652
4608000000,-140.80084
4609000000,-140.77544
4610000000,-140.7742
4611000000,-140.85164
4612000000,-140.86885
4613000000,-140.91046
4614000000,-140.97903
4615000000,-140.94147
4616000000,-141.07469
4617000000,-141.18854
4618000000,-141.11856
4619000000,-141.20436
4620000000,-141.05997
4621000000,-141.36169
4622000000,-141.48306
4623000000,-141.4874
4624000000,-141.47113
4625000000,-141.47186
4626000000,-141.4753
4627000000,-141.4248
4628000000,-141.54488
4629000000,-141.55296
4630000000,-141.58389
4631000000,-141.40956
4632000000,-141.44249
4633000000,-141.75185
4634000000,-141.80252
4635000000,-141.86682
4636000000,-141.77615
4637000000,-141.72372
4638000000,-141.82712
4639000000,-141.85318
4640000000,-141.80797
4641000000,-142.02957
4642000000,-141.94022
4643000000,-141.91364
4644000000,-142.01547
4645000000,-142.08139
4646000000,-141.90439
4647000000,-142.15393
4648000000,-142.10655
4649000000,-142.18571
4650000000,-142.06972
4651000000,-142.15465
4652000000,-142.22578
4653000000,-142.3757
4654000000,-142.2834
4655000000,-142.37097
4656000000,-142.47826
4657000000,-142.47583
4658000000,-142.40402
4659000000,-142.51965
4660000000,-142.62463
4661000000,-142.70663
4662000000,-142.73572
4663000000,-142.78381
4664000000,-142.67427
4665000000,-142.57103
4666000000,-142.76633
4667000000,-142.84059
4668000000,-142.85416
4669000000,-143.01419
4670000000,-142.76668
4671000000,-142.89648
4672000000,-142.95799
4673000000,-143.07938
4674000000,-143.01355
4675000000,-142.9785
4676000000,-143.09023
4677000000,-143.21411
4678000000,-143.06604
4679000000,-143.34161
4680000000,-143.23338
4681000000,-143.25308
4682000000,-143.28419
4683000000,-143.40211
4684000000,-143.38797
4685000000,-143.38931
4686000000,-143.47041
4687000000,-143.46069
4688000000,-143.53101
4689000000,-143.40445
4690000000,-143.6131
4691000000,-143.29257
4692000000,-143.55157
4693000000,-143.62268
4694000000,-143.66216
4695000000,-143.68596
4696000000,-143.75356
4697000000,-143.85938
4698000000,-143.71107
4699000000,-143.79248
4700000000,-143.83403
4701000000,-143.9519
4702000000,-144.00182
4703000000,-143.76247
4704000000,-144.18048
4705000000,-144.06902
4706000000,-144.28957
4707000000,-144.14366
4708000000,-144.20107
4709000000,-144.12178
4710000000,-144.16437
4711000000,-144.22649
4712000000,-144.22609
4713000000,-144.23399
4714000000,-144.407
4715000000,-144.40759
4716000000,-144.46217
4717000000,-144.42973
4718000000,-144.52164
4719000000,-144.40846
4720000000,-144.5258
4721000000,-144.57486
4722000000,-144.58681
4723000000,-144.61119
4724000000,-144.54817
4725000000,-144.6678
4726000000,-144.74696
4727000000,-144.78708
4728000000,-144.78438
4729000000,-144.97572
4730000000,-144.75725
4731000000,-144.9137
4732000000,-144.85378
4733000000,-145.01974
4734000000,-145.07709
4735000000,-145.0721
4736000000,-145.07898
4737000000,-145.12491
4738000000,-145.01256
4739000000,-145.22125
4740000000,-145.26215
4741000000,-145.21806
4742000000,-145.26724
4743000000,-145.19054
4744000000,-145.23114
4745000000,-145.33658
4746000000,-145.30605
4747000000,-145.41501
4748000000,-145.45038
4749000000,-145.38493
4750000000,-145.34871
4751000000,-145.74603
4752000000,-145.61221
4753000000,-145.62973
4754000000,-145.77626
4755000000,-145.67491
4756000000,-145.60503
4757000000,-145.74808
4758000000,-145.83406
4759000000,-145.67796
4760000000,-145.86096
4761000000,-145.75192
4762000000,-146.12311
4763000000,-146.03664
4764000000,-145.9245
4765000000,-146.10985
4766000000,-146.15005
4767000000,-146.01227
4768000000,-146.1752
4769000000,-146.229
4770000000,-146.05637
4771000000,-146.35152
4772000000,-146.14995
4773000000,-146.37463
4774000000,-146.41403
4775000000,-146.43578
4776000000,-146.45683
4777000000,-146.35088
4778000000,-146.46999
4779000000,-146.31259
4780000000,-146.50435
4781000000,-146.50093
4782000000,-146.56287
4783000000,-146.49292
4784000000,-146.60246
4785000000,-146.60822
4786000000,-146.79311
4787000000,-146.82834
4788000000,-146.72519
4789000000,-146.67966
4790000000,-146.98846
4791000000,-146.73566
4792000000,-146.99973
4793000000,-146.83876
4794000000,-146.99443
4795000000,-146.99013
4796000000,-146.92404
4797000000,-146.97095
4798000000,-147.1165
4799000000,-147.04129
4800000000,-147.25832
4801000000,-147.08572
4802000000,-147.24016
4803000000,-147.22284
4804000000,-147.38922
4805000000,-147.21449
4806000000,-147.27066
4807000000,-147.35167
4808000000,-147.40585
4809000000,-147.47902
4810000000,-147.46669
4811000000,-147.54323
4812000000,-147.45561
4813000000,-147.67085
4814000000,-147.55423
4815000000,-147.60239
4816000000,-147.5361
4817000000,-147.72388
4818000000,-147.80962
4819000000,-147.77779
4820000000,-147.85176
4821000000,-147.83226
4822000000,-147.90695
4823000000,-147.89864
4824000000,-147.83263
4825000000,-148.01646
4826000000,-148.04442
4827000000,-147.96883
4828000000,-148.02208
4829000000,-148.28259
4830000000,-148.03319
4831000000,-148.09167
4832000000,-148.29236
4833000000,-148.24005
4834000000,-148.40872
4835000000,-148.34929
4836000000,-148.37749
4837000000,-148.38501
4838000000,-148.42769
4839000000,-148.34792
4840000000,-148.40034
4841000000,-148.4649
4842000000,-148.33698
4843000000,-148.56001
4844000000,-148.56219
4845000000,-148.61134
4846000000,-148.62581
4847000000,-148.67474
4848000000,-148.76154
4849000000,-148.58203
4850000000,-148.71758
4851000000,-148.83577
4852000000,-148.8555
4853000000,-148.68858
4854000000,-148.96454
4855000000,-148.86311
4856000000,-148.9463
4857000000,-148.95001
4858000000,-149.07513
4859000000,-148.94624
4860000000,-149.0708
4861000000,-149.04848
4862000000,-149.04779
4863000000,-149.17749
4864000000,-149.33134
4865000000,-149.28479
4866000000,-149.25859
4867000000,-149.19655
4868000000,-149.33115
4869000000,-149.2722
4870000000,-149.24231
4871000000,-149.35963
4872000000,-149.27704
4873000000,-149.40254
4874000000,-149.51263
4875000000,-149.55116
4876000000,-149.55074
4877000000,-149.58846
4878000000,-149.45096
4879000000,-149.6716
4880000000,-149.731
4881000000,-149.64886
4882000000,-149.72754
4883000000,-149.75829
4884000000,-149.69557
4885000000,-149.85905
4886000000,-149.97795
4887000000,-149.79385
4888000000,-150.08641
4889000000,-149.97859
4890000000,-150.13553
4891000000,-150.24788
4892000000,-150.08434
4893000000,-149.89186
4894000000,-150.27849
4895000000,-150.11732
4896000000,-150.14034
4897000000,-150.19258
4898000000,-150.20004
4899000000,-150.26428
4900000000,-150.14351
4901000000,-150.25381
4902000000,-150.52504
4903000000,-150.58112
4904000000,-150.5589
4905000000,-150.55762
4906000000,-150.55917
4907000000,-150.5153
4908000000,-150.59441
4909000000,-150.65044
4910000000,-150.73579
4911000000,-150.85947
4912000000,-150.79878
4913000000,-150.69682
4914000000,-150.75758
4915000000,-150.84595
4916000000,-150.7812
4917000000,-150.92128
4918000000,-150.96205
4919000000,-151.00652
4920000000,-151.09428
4921000000,-151.00919
4922000000,-151.11923
4923000000,-151.00714
4924000000,-151.11926
4925000000,-151.01595
4926000000,-151.08376
4927000000,-151.18127
4928000000,-151.20473
4929000000,-151.14119
4930000000,-151.18591
4931000000,-151.31505
4932000000,-151.28108
4933000000,-151.40154
4934000000,-151.49242
4935000000,-151.48262
4936000000,-151.52348
4937000000,-151.54041
4938000000,-151.4588
4939000000,-151.58052
4940000000,-151.59232
4941000000,-151.6924
4942000000,-151.49283
4943000000,-151.75858
4944000000,-151.72479
4945000000,-151.67941
4946000000,-151.83849
4947000000,-151.7939
4948000000,-151.7504
4949000000,-151.98705
4950000000,-151.95772
4951000000,-151.89445
4952000000,-151.994
4953000000,-151.92189
4954000000,-151.79375
4955000000,-152.04956
4956000000,-152.1958
4957000000,-152.14072
4958000000,-152.00333
4959000000,-152.32069
4960000000,-152.19789
4961000000,-152.31181
4962000000,-152.34335
4963000000,-152.43854
4964000000,-152.27162
4965000000,-152.24954
4966000000,-152.40047
4967000000,-152.41415
4968000000,-152.54578
4969000000,-152.40416
4970000000,-152.563
4971000000,-152.49081
4972000000,-152.46364
4973000000,-152.40302
4974000000,-152.69342
4975000000,-152.54683
4976000000,-152.56818
4977000000,-152.79216
4978000000,-152.65782
4979000000,-152.77568
4980000000,-152.67377
4981000000,-152.75865
4982000000,-152.88647
4983000000,-152.81212
4984000000,-152.94896
4985000000,-152.92467
4986000000,-153.10089
4987000000,-153.09604
4988000000,-153.03343
4989000000,-153.18579
4990000000,-152.99933
4991000000,-153.02869
4992000000,-153.23152
4993000000,-153.13963
4994000000,-153.15129
4995000000,-153.10713
4996000000,-153.28758
4997000000,-153.28065
4998000000,-153.51657
4999000000,-153.49478
5000000000,-153.32358
END,
